;subject;stim;session;block;frame_rate;frame_int;trial_nb;SOA;real_SOA;target;mask;position;cor_ans;obj_rating;obj_RT;subj_rating;subj_RT;trial_duration;trigger
0;S_02;A;pre;1;59.82886551309128;[0.015397499999835418, 0.017128100000036284, 0.016356399999949645, 0.017086000000062995];94;3;0.050570500000048924;blank.tiff;mask.tiff;-0.14;a;['left'];0.9053893000000244;0;1.42;4.178555200000119;48
1;S_02;A;pre;1;59.82886551309128;[0.017229000000043015, 0.01653929999997672, 0.015891500000179803, 0.01667409999981828];68;4;0.049104899999974805;7.tif;mask.tiff;-0.14;right;['left'];0.8594805999998698;0;1.034;3.726069499999994;70
2;S_02;A;pre;1;59.82886551309128;[0.016980300000113857, 0.016395699999975477, 0.01708199999984572, 0.01681130000019948];54;2;0.05028900000002068;8.tif;mask.tiff;-0.14;right;['left'];1.0661336999999094;0;0.972;3.883145900000045;40
3;S_02;A;pre;1;59.82886551309128;[0.01609469999993962, 0.01672410000014679, 0.016756199999917953, 0.016826799999989817];74;5;0.05030710000005456;3.tif;mask.tiff;-0.14;left;['left'];0.4224587999999585;1;0.658;2.9226229999999305;84
4;S_02;A;pre;1;59.82886551309128;[0.016082500000038635, 0.017386499999929583, 0.016581300000098054, 0.016710699999975986];7;1;0.05067850000000362;8.tif;mask.tiff;0.14;right;['right'];0.9324962000000596;0;0.833;3.600193900000022;25
5;S_02;A;pre;1;59.82886551309128;[0.01643300000000636, 0.017517699999871184, 0.01649720000000343, 0.016373000000157845];65;4;0.05038790000003246;2.tif;mask.tiff;0.14;left;['left'];4.419549800000141;0;1.514;7.769829300000083;67
6;S_02;A;pre;1;59.82886551309128;[0.017101600000160033, 0.016002399999933914, 0.0168628000001263, 0.016464999999925567];22;3;0.04933019999998578;8.tif;mask.tiff;-0.14;right;['left'];0.30157200000007833;1;1.528;3.6681186000000707;56
7;S_02;A;pre;1;59.82886551309128;[0.01596319999998741, 0.01679939999985436, 0.016878100000212726, 0.016827399999783665];67;4;0.05050489999985075;3.tif;mask.tiff;0.14;left;['right'];0.4404605999998239;0;3.444;5.723606899999822;69
8;S_02;A;pre;1;59.82886551309128;[0.01730479999991985, 0.015873600000077204, 0.017118499999924097, 0.016191300000173214];53;2;0.049183400000174515;7.tif;mask.tiff;0.14;right;['left'];0.9039671000000453;0;2.01;4.754277199999933;39
9;S_02;A;pre;1;59.82886551309128;[0.016895599999998012, 0.016709999999875436, 0.015906500000028245, 0.01713330000006863];93;2;0.04974979999997231;blank.tiff;mask.tiff;0.14;a;['right'];0.5721476999999595;0;1.776;4.18922520000001;33
10;S_02;A;pre;1;59.82886551309128;[0.016846400000076756, 0.01633640000000014, 0.016803900000013527, 0.016617300000007162];8;2;0.04975760000002083;2.tif;mask.tiff;-0.14;left;['right'];4.769829299999856;0;5.474;12.085923699999967;34
11;S_02;A;pre;1;59.82886551309128;[0.016857800000025236, 0.017316100000016377, 0.016233300000067175, 0.016532999999981257];91;1;0.05008240000006481;blank.tiff;mask.tiff;0.14;a;['left'];0.5869321000000127;0;1.007;3.4366580000000795;17
12;S_02;A;pre;1;59.82886551309128;[0.016960200000085024, 0.016259099999842874, 0.016904100000147082, 0.01714070000002721];6;1;0.050303900000017165;8.tif;mask.tiff;-0.14;right;['right'];0.5575106999999662;0;0.998;3.3908243000000766;24
13;S_02;A;pre;1;59.82886551309128;[0.016724600000088685, 0.016669399999955203, 0.016851100000167207, 0.016288499999973283];10;2;0.04980900000009569;3.tif;mask.tiff;-0.14;left;['left'];0.7140623999998752;1;1.129;3.6810740999999325;36
14;S_02;A;pre;1;59.82886551309128;[0.016706299999896146, 0.016161700000111523, 0.016530399999965084, 0.01746899999989182];52;2;0.05016109999996843;7.tif;mask.tiff;-0.14;right;['right'];0.3776032999999188;0;0.908;3.1273610000000645;38
15;S_02;A;pre;1;59.82886551309128;[0.01722469999981513, 0.01618060000009791, 0.016874899999947957, 0.016591000000062195];95;3;0.04964650000010806;blank.tiff;mask.tiff;0.14;a;['right'];0.4998657999999523;1;0.739;3.0833092000000306;49
16;S_02;A;pre;1;59.82886551309128;[0.017122299999982715, 0.016709999999875436, 0.016564400000106616, 0.0167189999999664];20;3;0.04999339999994845;7.tif;mask.tiff;-0.14;right;['left'];0.6437797999999475;0;1.132;3.6099567999999636;54
17;S_02;A;pre;1;59.82886551309128;[0.01752759999999398, 0.015906200000017634, 0.016672399999833942, 0.01680850000002465];69;4;0.04938709999987623;7.tif;mask.tiff;0.14;right;['right'];0.2858510999999453;1;0.699;2.8198099999999613;71
18;S_02;A;pre;1;59.82886551309128;[0.017304599999988568, 0.016634400000157257, 0.016350499999816748, 0.017039300000078583];3;1;0.05002420000005259;3.tif;mask.tiff;0.14;left;['left'];0.5607313000000431;1;0.667;3.06104449999998;21
19;S_02;A;pre;1;59.82886551309128;[0.016739700000016455, 0.016795300000012503, 0.01636970000004112, 0.01666649999992842];72;5;0.04983149999998204;2.tif;mask.tiff;-0.14;left;['left'];0.8500457000000097;0;0.846;3.533176200000071;82
20;S_02;A;pre;1;59.82886551309128;[0.017189899999948466, 0.01682210000012674, 0.01650289999997767, 0.016247999999905005];76;5;0.049573000000009415;7.tif;mask.tiff;-0.14;right;['right'];0.16789859999994405;0;1.211;3.2180908000000272;86
21;S_02;A;pre;1;59.82886551309128;[0.01601659999982985, 0.017704699999967488, 0.015808200000037687, 0.016906900000094538];0;1;0.05041980000009971;2.tif;mask.tiff;-0.14;left;['right'];0.3424238999998579;0;0.893;3.074757300000101;18
22;S_02;A;pre;1;59.82886551309128;[0.01635220000002846, 0.0164439999998649, 0.017128599999978178, 0.016673500000024433];13;2;0.05024609999986751;7.tif;mask.tiff;0.14;right;['right'];1.3067541000000347;0;0.942;4.089920099999972;39
23;S_02;A;pre;1;59.82886551309128;[0.016926199999943492, 0.01629840000009608, 0.01637469999991481, 0.016888699999981327];32;5;0.04956179999999222;2.tif;mask.tiff;-0.14;left;['left'];0.2823448000001463;1;0.927;3.0489601000001585;82
24;S_02;A;pre;1;59.82886551309128;[0.015611600000056569, 0.01716830000009395, 0.016023299999915253, 0.016815799999903902];36;5;0.050007399999913105;7.tif;mask.tiff;-0.14;right;['right'];4.735413999999992;0;1.028;7.602084200000036;86
25;S_02;A;pre;1;59.82886551309128;[0.017039399999930538, 0.016827500000090367, 0.016137899999876026, 0.017563900000141075];83;2;0.05052930000010747;blank.tiff;mask.tiff;0.14;a;['left'];0.5819395999999415;0;1.28;3.6983525999999074;33
26;S_02;A;pre;1;59.82886551309128;[0.017153900000039357, 0.016659699999991062, 0.016745700000001307, 0.01612610000006498];37;5;0.04953150000005735;7.tif;mask.tiff;0.14;right;['right'];0.5503709000001891;1;1.623;4.032423000000108;87
27;S_02;A;pre;1;59.82886551309128;[0.01677220000010493, 0.016451299999971525, 0.016771999999946274, 0.016385099999979502];28;4;0.0496083999998973;7.tif;mask.tiff;-0.14;right;['right'];0.6312397000001511;0;0.81;3.281001399999923;70
28;S_02;A;pre;1;59.82886551309128;[0.01758849999987433, 0.015849000000116575, 0.017611099999840008, 0.015920300000061616];84;3;0.0493804000000182;blank.tiff;mask.tiff;-0.14;a;['right'];0.7260842000000594;0;1.178;3.7432298000001083;48
29;S_02;A;pre;1;59.82886551309128;[0.01662579999992886, 0.01743750000014188, 0.016379199999846605, 0.01656090000005861];15;2;0.050377600000047096;8.tif;mask.tiff;0.14;right;['right'];0.6563962999998694;0;2.662;5.156054100000119;41
30;S_02;A;pre;1;59.82886551309128;[0.016582900000003065, 0.01765109999996639, 0.015718000000106258, 0.01762789999997949];86;4;0.05099700000005214;blank.tiff;mask.tiff;-0.14;a;['right'];0.6296314999999595;0;0.796;3.262310800000023;64
31;S_02;A;pre;1;59.82886551309128;[0.016711699999859775, 0.01682680000021719, 0.016834099999869068, 0.016461800000115545];38;5;0.0501227000002018;8.tif;mask.tiff;-0.14;right;['right'];0.7023779000001014;0;1.592;4.135493900000029;88
32;S_02;A;pre;1;59.82886551309128;[0.01685530000008839, 0.016416599999956816, 0.016890299999886338, 0.016732100000126593];77;5;0.05003899999996975;7.tif;mask.tiff;0.14;right;['left'];0.4923223999999209;0;1.158;3.4918619000000035;87
33;S_02;A;pre;1;59.82886551309128;[0.015713600000026418, 0.016195200000083787, 0.017378700000108438, 0.016791499999953885];48;2;0.05036540000014611;2.tif;mask.tiff;-0.14;left;['left'];0.3985434000001078;1;0.697;2.9327491999999893;34
34;S_02;A;pre;1;59.82886551309128;[0.016333900000063295, 0.01642319999996289, 0.01685599999996157, 0.016656300000022384];35;5;0.04993549999994684;3.tif;mask.tiff;0.14;left;['right'];0.8763043000001289;0;4.064;6.7761668000000554;85
35;S_02;A;pre;1;59.82886551309128;[0.015803099999857295, 0.017057400000112466, 0.017144899999948393, 0.015797799999972995];27;4;0.050000100000033854;3.tif;mask.tiff;0.14;left;['right'];0.19979130000001533;1;1.078;3.116514600000073;69
36;S_02;A;pre;1;59.82886551309128;[0.015956800000139992, 0.016578099999833285, 0.01742770000009841, 0.01602679999996326];55;2;0.050032599999894956;8.tif;mask.tiff;0.14;right;['right'];0.22415490000003047;1;0.746;2.8076845000000503;41
37;S_02;A;pre;1;59.82886551309128;[0.01675270000009732, 0.01650419999987207, 0.016866300000174306, 0.01591910000001917];42;1;0.04928960000006555;3.tif;mask.tiff;-0.14;left;['left'];0.9683990000000904;0;1.027;3.835191300000133;20
38;S_02;A;pre;1;59.82886551309128;[0.016428099999984624, 0.016990699999951175, 0.015987799999948038, 0.017108300000018062];14;2;0.050086799999917275;8.tif;mask.tiff;-0.14;right;['right'];0.3200775000000249;1;1.242;3.403438799999776;40
39;S_02;A;pre;1;59.82886551309128;[0.016882399999985864, 0.016586599999982354, 0.016393600000128572, 0.016560599999820624];85;3;0.04954079999993155;blank.tiff;mask.tiff;0.14;a;['left'];0.2545411000000968;1;1.369;3.454025700000102;49
40;S_02;A;pre;1;59.82886551309128;[0.017014300000028015, 0.01672129999997196, 0.016227000000071712, 0.017586500000106753];5;1;0.050534800000150426;7.tif;mask.tiff;0.14;right;['left'];0.3229214000000411;0;1.399;3.556325300000026;23
41;S_02;A;pre;1;59.82886551309128;[0.017374699999891163, 0.01681500000017877, 0.016124300000001313, 0.017159999999876163];64;4;0.050099300000056246;2.tif;mask.tiff;-0.14;left;['left'];0.6213159000001269;0;0.844;3.30442939999989;66
42;S_02;A;pre;1;59.82886551309128;[0.01687499999979991, 0.016181400000050417, 0.01751579999995556, 0.01617090000013377];47;1;0.04986810000013975;8.tif;mask.tiff;0.14;right;['right'];0.6106254000001172;0;1.245;3.6943664000000354;25
43;S_02;A;pre;1;59.82886551309128;[0.0169336999999814, 0.016457700000046316, 0.01648180000006505, 0.017280499999969834];87;4;0.0502200000000812;blank.tiff;mask.tiff;0.14;a;['left'];0.848310599999877;0;2.042;4.731502900000123;65
44;S_02;A;pre;1;59.82886551309128;[0.016976899999917805, 0.016683800000009796, 0.016894800000045507, 0.016792599999917];21;3;0.050371199999972305;7.tif;mask.tiff;0.14;right;['right'];0.2486616999999569;1;0.806;2.8816451999998662;55
45;S_02;A;pre;1;59.82886551309128;[0.017027699999971446, 0.01679150000018126, 0.01707259999989219, 0.01605810000000929];23;3;0.04992220000008274;8.tif;mask.tiff;0.14;right;['left'];0.3251483999999891;1;0.64;2.8082873999999265;57
46;S_02;A;pre;1;59.82886551309128;[0.016693899999836503, 0.016539300000204094, 0.01708709999979874, 0.016019600000163337];75;5;0.04964600000016617;3.tif;mask.tiff;0.14;left;['right'];3.9366701999999805;0;1.592;7.36946120000016;85
47;S_02;A;pre;1;59.82886551309128;[0.017032500000141226, 0.016510599999946862, 0.016194099999893297, 0.016900500000019747];34;5;0.049605199999859906;3.tif;mask.tiff;-0.14;left;['left'];0.32961379999983365;0;3.061;5.228642799999989;84
48;S_02;A;pre;1;59.82886551309128;[0.017298199999913777, 0.0160748999999214, 0.017140900000185866, 0.01658869999982926];56;3;0.049804499999936525;2.tif;mask.tiff;-0.14;left;['right'];0.6919938000000911;0;0.898;3.425209799999948;50
49;S_02;A;pre;1;59.82886551309128;[0.017291200000045137, 0.016491599999881146, 0.01608699999997043, 0.016829200000074707];49;2;0.04940779999992628;2.tif;mask.tiff;0.14;left;['left'];0.471766099999968;0;2.157;4.471264399999882;35
50;S_02;A;pre;1;59.82886551309128;[0.016397600000118473, 0.017355699999825447, 0.016271000000187996, 0.016504099999792743];96;4;0.050130799999806186;blank.tiff;mask.tiff;-0.14;a;['right'];1.150687100000141;0;2.778;5.766859699999941;64
51;S_02;A;pre;1;59.82886551309128;[0.01660249999986263, 0.016380799999751616, 0.01757050000014715, 0.01641490000019985];24;4;0.050366200000098615;2.tif;mask.tiff;-0.14;left;['left'];0.8916847000000416;1;0.714;3.441231400000106;66
52;S_02;A;pre;1;59.82886551309128;[0.01673579999987851, 0.016755900000134716, 0.01644239999995989, 0.01653230000010808];25;4;0.049730600000202685;2.tif;mask.tiff;0.14;left;['left'];0.3359893000001648;1;0.663;2.8362231999999494;67
53;S_02;A;pre;1;59.82886551309128;[0.01672499999995125, 0.020392200000060257, 0.012884899999789923, 0.016634200000225974];1;1;0.04991130000007615;2.tif;mask.tiff;0.14;left;['left'];0.7870499999999083;1;1.167;3.786821400000008;19
54;S_02;A;pre;1;59.82886551309128;[0.020572299999912502, 0.012700199999926554, 0.0163167999999132, 0.016695599999820843];80;1;0.0457125999996606;blank.tiff;mask.tiff;-0.14;a;['right'];0.35823919999984355;0;2.169;4.35788760000014;16
55;S_02;A;pre;1;59.82886551309128;[0.016862099999798374, 0.01686779999999999, 0.016961900000296737, 0.016528199999811477];51;2;0.0503579000001082;3.tif;mask.tiff;0.14;left;['left'];0.3299602000001869;1;0.755;2.9300367999999253;37
56;S_02;A;pre;1;59.82886551309128;[0.01685429999997723, 0.01648430000022927, 0.016899299999749928, 0.01692670000011276];50;2;0.050310300000091956;3.tif;mask.tiff;-0.14;left;['right'];0.37852010000005976;0;1.293;3.511754699999983;36
57;S_02;A;pre;1;59.82886551309128;[0.016758799999934126, 0.016629199999897537, 0.016779699999915465, 0.016704800000297837];43;1;0.05011370000011084;3.tif;mask.tiff;0.14;left;['left'];0.6057068999998592;1;3.763;6.205139599999711;21
58;S_02;A;pre;1;59.82886551309128;[0.01623569999992469, 0.0170775000001413, 0.016517499999736174, 0.016725700000279176];60;3;0.05032070000015665;7.tif;mask.tiff;-0.14;right;['right'];0.25931519999994634;1;0.846;2.9432315999997627;54
59;S_02;A;pre;1;59.82886551309128;[0.016346700000212877, 0.01684739999973317, 0.015933799999857, 0.017109700000219163];82;2;0.049890899999809335;blank.tiff;mask.tiff;-0.14;a;['left'];0.30092830000012327;0;0.742;2.883844400000271;32
60;S_02;A;pre;1;59.82886551309128;[0.016830399999889778, 0.016173199999684584, 0.01623680000011518, 0.017601400000330614];46;1;0.05001140000013038;8.tif;mask.tiff;-0.14;right;['right'];1.2372479999999086;0;1.472;4.5545640999998795;24
61;S_02;A;pre;1;59.82886551309128;[0.017004899999847112, 0.015871400000378344, 0.016621899999790912, 0.016557400000237976];92;2;0.04905070000040723;blank.tiff;mask.tiff;-0.14;a;['right'];0.8339400999998361;0;0.916;3.5838856000000305;32
62;S_02;A;pre;1;59.82886551309128;[0.016757200000029115, 0.017182799999773124, 0.016330400000242662, 0.01612669999985883];70;4;0.049639899999874615;8.tif;mask.tiff;-0.14;right;['right'];1.2360247999999956;0;1.326;4.401926999999887;72
63;S_02;A;pre;1;59.82886551309128;[0.016124000000218075, 0.016435999999885098, 0.01719890000003943, 0.01686699999982011];71;4;0.05050189999974464;8.tif;mask.tiff;0.14;right;['right'];0.1706992000003993;1;0.758;2.7706207999999606;73
64;S_02;A;pre;1;59.82886551309128;[0.016238799999882758, 0.01644990000022517, 0.017365199999858305, 0.016318500000124914];45;1;0.05013360000020839;7.tif;mask.tiff;0.14;right;['left'];0.3300426000000698;1;0.879;3.0458856999998716;23
65;S_02;A;pre;1;59.82886551309128;[0.015619199999946431, 0.017320500000096217, 0.01701520000005985, 0.016061100000115403];57;3;0.05039680000027147;2.tif;mask.tiff;0.14;left;['left'];0.27458519999981945;1;1.806;3.9244872999997824;51
66;S_02;A;pre;1;59.82886551309128;[0.017308500000126514, 0.016026199999942037, 0.017139600000064092, 0.015846899999814923];9;2;0.04901269999982105;2.tif;mask.tiff;0.14;left;['left'];0.3276151000000027;0;0.848;3.0110727999999654;35
67;S_02;A;pre;1;59.82886551309128;[0.017462799999975687, 0.015746600000056787, 0.016720599999644037, 0.01649020000013479];63;3;0.048957399999835616;8.tif;mask.tiff;0.14;right;['left'];0.32993759999999384;1;5.841;8.012865600000168;57
68;S_02;A;pre;1;59.82886551309128;[0.01680820000001404, 0.016715100000055827, 0.016497200000230805, 0.01707799999985582];29;4;0.05029030000014245;7.tif;mask.tiff;0.14;right;['left'];0.6301840000000993;1;1.364;3.829604300000028;71
69;S_02;A;pre;1;59.82886551309128;[0.016765900000336842, 0.01695079999990412, 0.016413299999840092, 0.01667730000008305];89;5;0.05004139999982726;blank.tiff;mask.tiff;0.14;a;['left'];2.2666392999999516;0;2.443;6.549778999999944;81
70;S_02;A;pre;1;59.82886551309128;[0.01653200000009747, 0.01657470000009198, 0.017055599999821425, 0.016422200000306475];39;5;0.05005250000021988;8.tif;mask.tiff;0.14;right;['right'];0.38577359999999317;1;0.801;3.019001399999979;89
71;S_02;A;pre;1;59.82886551309128;[0.016662500000165892, 0.016283200000088982, 0.017469599999913044, 0.015917199999876175];98;5;0.0496699999998782;blank.tiff;mask.tiff;-0.14;a;['left'];2.0903152000000773;0;0.834;4.757181699999819;80
72;S_02;A;pre;1;59.82886551309128;[0.016658600000027945, 0.016423699999904784, 0.01660249999986263, 0.01670990000002348];2;1;0.049736099999790895;3.tif;mask.tiff;-0.14;left;['left'];1.1206898000000365;0;0.785;3.736914699999943;20
73;S_02;A;pre;1;59.82886551309128;[0.01654599999983475, 0.01694790000010471, 0.016554899999846384, 0.01739129999987199];33;5;0.050894099999823084;2.tif;mask.tiff;0.14;left;['left'];0.7871838999999454;1;0.826;3.469857999999931;83
74;S_02;A;pre;1;59.82886551309128;[0.016960200000085024, 0.01732910000009724, 0.016131599999880564, 0.016393100000186678];66;4;0.04985380000016448;3.tif;mask.tiff;-0.14;left;['left'];3.5137282000000596;0;2.432;7.780213099999855;68
75;S_02;A;pre;1;59.82886551309128;[0.01689170000008744, 0.016538199999558856, 0.016510300000391, 0.017138299999714945];62;3;0.0501867999996648;8.tif;mask.tiff;-0.14;right;['left'];0.1721092999996472;1;0.666;2.671394699999837;56
76;S_02;A;pre;1;59.82886551309128;[0.016905599999972765, 0.016497199999776058, 0.01683920000004946, 0.017290000000230066];40;1;0.05062640000005558;2.tif;mask.tiff;-0.14;left;['left'];0.8385669999997845;0;0.956;3.6384728000002724;18
77;S_02;A;pre;1;59.82886551309128;[0.016067600000042148, 0.01686100000006263, 0.016554399999677116, 0.01668740000013713];97;4;0.05010279999987688;blank.tiff;mask.tiff;0.14;a;['left'];0.840547300000253;0;1.313;3.991125600000032;65
78;S_02;A;pre;1;59.82886551309128;[0.017171099999814032, 0.016283299999940937, 0.016410199999882025, 0.017420700000002398];41;1;0.05011419999982536;2.tif;mask.tiff;0.14;left;['left'];1.410079300000234;0;0.862;5.626288700000259;19
79;S_02;A;pre;1;59.82886551309128;[0.016896000000087952, 0.016350299999885465, 0.016814900000099442, 0.017109699999764416];90;1;0.05027489999974932;blank.tiff;mask.tiff;-0.14;a;['left'];1.5802659000000858;0;3.691;7.1136397999998735;16
80;S_02;A;pre;1;59.82886551309128;[0.016814000000067608, 0.017133400000147958, 0.01635809999970661, 0.016067000000020926];17;3;0.049558499999875494;2.tif;mask.tiff;0.14;left;['left'];0.7815045000002101;0;2.191;4.815249100000074;51
81;S_02;A;pre;1;59.82886551309128;[0.017176900000322348, 0.01648189999968963, 0.01735869999993156, 0.01621850000037739];4;1;0.05005909999999858;7.tif;mask.tiff;-0.14;right;['left'];0.7181301000000531;0;0.843;3.401005200000327;22
82;S_02;A;pre;1;59.82886551309128;[0.016733400000248366, 0.01670930000000226, 0.016624899999897025, 0.01679100000001199];26;4;0.050125199999911274;3.tif;mask.tiff;-0.14;left;['left'];0.1975323000001481;1;0.717;2.746748099999877;68
83;S_02;A;pre;1;59.82886551309128;[0.016679000000294764, 0.01718719999962559, 0.015823400000044785, 0.017414100000223698];61;3;0.050424699999894074;7.tif;mask.tiff;0.14;right;['right'];0.6826403000000028;0;0.66;3.1828661999998076;55
84;S_02;A;pre;1;59.82886551309128;[0.016473799999857874, 0.01650969999991503, 0.01648539999996501, 0.017326500000308442];79;5;0.05032160000018848;8.tif;mask.tiff;0.14;right;['left'];0.6922795999998925;0;1.11;3.642263400000047;89
85;S_02;A;pre;1;59.82886551309128;[0.016613299999789888, 0.01779000000033193, 0.015419800000017858, 0.016837199999827135];73;5;0.05004700000017692;2.tif;mask.tiff;0.14;left;['left'];0.36769609999964814;1;1.026;3.2337029000000257;83
86;S_02;A;pre;1;59.82886551309128;[0.01687439999977869, 0.01663330000019414, 0.017312200000105804, 0.015670899999804533];31;4;0.04961640000010448;8.tif;mask.tiff;0.14;right;['left'];0.6540267000000313;0;1.131;3.6205626999999367;73
87;S_02;A;pre;1;59.82886551309128;[0.016495899999881658, 0.01701710000043022, 0.01600220000000263, 0.01701889999958439];88;5;0.05003820000001724;blank.tiff;mask.tiff;-0.14;a;['right'];2.2178585000001476;0;1.231;5.283627799999977;80
88;S_02;A;pre;1;59.82886551309128;[0.016569200000049022, 0.017145799999980227, 0.016410700000051293, 0.016470599999593105];99;5;0.050027099999624625;blank.tiff;mask.tiff;0.14;a;['right'];6.806367600000158;0;0.84;9.489423299999999;81
89;S_02;A;pre;1;59.82886551309128;[0.01672129999997196, 0.016402100000050268, 0.017003699999804667, 0.016887600000245584];78;5;0.05029340000010052;8.tif;mask.tiff;-0.14;right;['left'];0.5981870000000526;0;0.81;3.248641200000293;88
90;S_02;A;pre;1;59.82886551309128;[0.01668740000013713, 0.0172205999997459, 0.01636270000017248, 0.016956699999809643];44;1;0.050539999999728025;7.tif;mask.tiff;-0.14;right;['right'];6.094114200000149;0;0.792;8.72778100000005;22
91;S_02;A;pre;1;59.82886551309128;[0.016313000000081956, 0.016731000000163476, 0.018085400000018126, 0.015563899999960995];30;4;0.0503803000001426;8.tif;mask.tiff;-0.14;right;['left'];0.3605515999997806;1;0.716;2.9102077999996254;72
92;S_02;A;pre;1;59.82886551309128;[0.01657240000031379, 0.017592400000012276, 0.016146699999808334, 0.01660360000005312];16;3;0.05034269999987373;2.tif;mask.tiff;-0.14;left;['left'];0.17993200000000797;1;0.61;2.6300175999999738;50
93;S_02;A;pre;1;59.82886551309128;[0.01679710000007617, 0.016795399999864458, 0.016495599999871047, 0.017176199999994424];11;2;0.05046719999972993;3.tif;mask.tiff;0.14;left;['right'];0.1371914999999717;1;0.674;2.6538840999996864;37
94;S_02;A;pre;1;59.82886551309128;[0.016241700000136916, 0.016473600000153965, 0.01698939999960203, 0.01662300000043615];81;1;0.050086000000192143;blank.tiff;mask.tiff;0.14;a;['right'];4.970509400000083;0;0.826;7.636817100000371;17
95;S_02;A;pre;1;59.82886551309128;[0.016779999999926076, 0.015812600000117527, 0.01752729999998337, 0.016153799999756302];18;3;0.0494936999998572;3.tif;mask.tiff;-0.14;left;['left'];1.5690792999998848;0;1.306;4.719008300000041;52
96;S_02;A;pre;1;59.82886551309128;[0.01588290000017878, 0.01693569999997635, 0.01650370000015755, 0.017242200000055163];19;3;0.050681600000189064;3.tif;mask.tiff;0.14;left;['right'];0.32095959999969637;0;1.227;3.387499200000093;53
97;S_02;A;pre;1;59.82886551309128;[0.016902399999707995, 0.01659300000028452, 0.016947399999935442, 0.016486799999711366];12;2;0.05002719999993133;7.tif;mask.tiff;-0.14;right;['right'];0.2828231000003143;1;0.832;2.9495686000000205;38
98;S_02;A;pre;1;59.82886551309128;[0.01645039999993969, 0.01662140000007639, 0.01684770000019853, 0.01696799999990617];58;3;0.05043710000018109;3.tif;mask.tiff;-0.14;left;['right'];0.4634108999998716;1;0.847;3.1467766999999185;52
99;S_02;A;pre;1;59.82886551309128;[0.017058799999631447, 0.016283200000088982, 0.016643700000258832, 0.016688199999862263];59;3;0.04961510000021008;3.tif;mask.tiff;0.14;left;['left'];0.467332499999884;0;1.246;3.5502258999999867;53
100;S_02;A;pre;2;59.82886551309128;[0.016748999999890657, 0.01671119999991788, 0.01665769999999611, 0.017030200000135665];6;1;0.05039910000004966;8.tif;mask.tiff;-0.14;right;['left'];0.6080748999997923;0;4.209;6.6582525999997415;24
101;S_02;A;pre;2;59.82886551309128;[0.015815400000064983, 0.016217000000324333, 0.017137800000000425, 0.01690809999990961];0;1;0.05026290000023437;2.tif;mask.tiff;-0.14;left;['left'];0.334581099999923;1;0.682;2.850558799999817;18
102;S_02;A;pre;2;59.82886551309128;[0.01667230000020936, 0.016662900000028458, 0.016959699999915756, 0.01630380000005971];72;5;0.04992640000000392;2.tif;mask.tiff;-0.14;left;['left'];0.425423199999841;1;1.598;3.857894099999612;82
103;S_02;A;pre;2;59.82886551309128;[0.01789299999973082, 0.01627550000011979, 0.015740000000278087, 0.01761229999965508];13;2;0.04962780000005296;7.tif;mask.tiff;0.14;right;['right'];1.2121643999998923;0;1.13;4.178406900000027;39
104;S_02;A;pre;2;59.82886551309128;[0.016962400000011257, 0.01652990000002319, 0.0168773999998848, 0.016217500000038854];26;4;0.049624799999946845;3.tif;mask.tiff;-0.14;left;['left'];0.0873132000001533;1;0.707;2.636822299999949;68
105;S_02;A;pre;2;59.82886551309128;[0.016886600000361796, 0.016103199999633944, 0.016992800000025454, 0.016607200000180455];17;3;0.04970319999983985;2.tif;mask.tiff;0.14;left;['right'];0.7568725000000995;0;2.178;4.7732482000001255;51
106;S_02;A;pre;2;59.82886551309128;[0.015604100000018661, 0.01688530000001265, 0.01663379999990866, 0.018285800000285235];91;1;0.051804900000206544;blank.tiff;mask.tiff;0.14;a;['left'];8.743815899999845;0;1.178;11.760927899999842;17
107;S_02;A;pre;2;59.82886551309128;[0.016507999999703316, 0.016655000000355358, 0.01611529999991035, 0.016721599999982573];69;4;0.04949190000024828;7.tif;mask.tiff;0.14;right;['left'];0.5296980999996777;0;1.841;4.212972299999819;71
108;S_02;A;pre;2;59.82886551309128;[0.016825000000153523, 0.016857900000104564, 0.01705919999994876, 0.015816999999969994];88;5;0.04973410000002332;blank.tiff;mask.tiff;-0.14;a;['left'];0.8451033000001189;0;3.625;6.311752399999932;80
109;S_02;A;pre;2;59.82886551309128;[0.01587259999996604, 0.017527399999835325, 0.016171000000213098, 0.01643229999990581];40;1;0.05013069999995423;2.tif;mask.tiff;-0.14;left;['left'];0.532580500000222;0;0.955;3.3326732999998967;18
110;S_02;A;pre;2;59.82886551309128;[0.01690820000021631, 0.01695369999970353, 0.015749200000300334, 0.016872699999566976];75;5;0.04957559999957084;3.tif;mask.tiff;0.14;left;['right'];0.8823072000000138;0;1.936;4.649368200000026;85
111;S_02;A;pre;2;59.82886551309128;[0.016422199999851728, 0.016881300000022748, 0.016380300000037096, 0.017079000000194355];18;3;0.0503406000002542;3.tif;mask.tiff;-0.14;left;['left'];0.3903252000000066;1;0.823;3.0566634000001613;52
112;S_02;A;pre;2;59.82886551309128;[0.016978300000118907, 0.016239999999925203, 0.016736800000217045, 0.01742770000009841];22;3;0.05040450000024066;8.tif;mask.tiff;-0.14;right;['right'];0.4439453000004505;1;2.109;4.393812799999978;56
113;S_02;A;pre;2;59.82886551309128;[0.01705309999988458, 0.017369400000006863, 0.016310299999986455, 0.016583600000103615];74;5;0.05026330000009693;3.tif;mask.tiff;-0.14;left;['left'];0.6015141000002586;0;3.415;5.851568199999747;84
114;S_02;A;pre;2;59.82886551309128;[0.016900599999644328, 0.017448700000386452, 0.015803299999788578, 0.016824799999994866];46;1;0.050076800000169897;8.tif;mask.tiff;-0.14;right;['left'];1.2491487999996025;0;1.222;4.315477599999667;24
115;S_02;A;pre;2;59.82886551309128;[0.01718010000013237, 0.017034500000136177, 0.015827700000045297, 0.017290199999933975];52;2;0.05015240000011545;7.tif;mask.tiff;-0.14;right;['left'];0.5044299999999566;0;1.178;3.5201750999999604;38
116;S_02;A;pre;2;59.82886551309128;[0.015973200000189536, 0.016985599999770784, 0.0163975999998911, 0.017733099999986734];28;4;0.05111629999964862;7.tif;mask.tiff;-0.14;right;['left'];5.760702900000069;0;1.932;9.52718700000014;70
117;S_02;A;pre;2;59.82886551309128;[0.01692990000037753, 0.016401999999743566, 0.016290699999899516, 0.01720950000026278];49;2;0.04990219999990586;2.tif;mask.tiff;0.14;left;['left'];0.8580156000002717;1;1.374;4.075032200000351;35
118;S_02;A;pre;2;59.82886551309128;[0.016189399999802845, 0.01700490000030186, 0.01660109999966153, 0.016609799999969255];37;5;0.05021579999993264;7.tif;mask.tiff;0.14;right;['right'];0.3491686999996091;1;0.917;3.0987599000000046;87
119;S_02;A;pre;2;59.82886551309128;[0.016203500000301574, 0.01702129999966928, 0.021570400000200607, 0.011177299999872048];55;2;0.049768999999741936;8.tif;mask.tiff;0.14;right;['right'];4.0640386000000035;0;0.993;6.897792099999606;41
120;S_02;A;pre;2;59.82886551309128;[0.01678959999981089, 0.016726199999993696, 0.015985300000011193, 0.016803900000013527];63;3;0.04951540000001842;8.tif;mask.tiff;0.14;right;['right'];0.5818709999998646;1;1.027;3.447594499999923;57
121;S_02;A;pre;2;59.82886551309128;[0.016292900000280497, 0.016760799999701703, 0.016652600000270468, 0.017118700000082754];34;5;0.050532100000054925;3.tif;mask.tiff;-0.14;left;['right'];1.0939190999997663;0;1.028;3.9600212000000283;84
122;S_02;A;pre;2;59.82886551309128;[0.016874800000096002, 0.016267399999833287, 0.01709100000016406, 0.01659139999992476];41;1;0.049949799999922107;2.tif;mask.tiff;0.14;left;['right'];2.0947956999998496;0;2.695;6.627448299999742;19
123;S_02;A;pre;2;59.82886551309128;[0.017418800000086776, 0.016152300000157993, 0.01726989999997386, 0.016736600000058388];61;3;0.05015880000019024;7.tif;mask.tiff;0.14;right;['left'];0.9233923000001596;0;1.01;3.772414200000185;55
124;S_02;A;pre;2;59.82886551309128;[0.015620399999988877, 0.01654580000013084, 0.01698160000023563, 0.016862099999798374];60;3;0.050389500000164844;7.tif;mask.tiff;-0.14;right;['right'];0.4410805000002256;0;5.162;7.439950399999816;54
125;S_02;A;pre;2;59.82886551309128;[0.015726799999811192, 0.016795600000023114, 0.016823899999963032, 0.01657370000020819];32;5;0.05019320000019434;2.tif;mask.tiff;-0.14;left;['right'];0.42460520000031465;0;1.161;3.424873800000114;82
126;S_02;A;pre;2;59.82886551309128;[0.016395399999964866, 0.016467200000079174, 0.017011200000069948, 0.016585500000019238];96;4;0.05006390000016836;blank.tiff;mask.tiff;-0.14;a;['left'];0.34716809999963516;0;0.738;2.9299059999998462;64
127;S_02;A;pre;2;59.82886551309128;[0.017610700000204815, 0.01655140000002575, 0.0163087999999334, 0.016747299999678944];16;3;0.049607499999638094;2.tif;mask.tiff;-0.14;left;['right'];3.079681200000323;0;0.975;5.896326399999907;50
128;S_02;A;pre;2;59.82886551309128;[0.016998399999920366, 0.01638199999979406, 0.01648010000008071, 0.017257099999824277];30;4;0.05011919999969905;8.tif;mask.tiff;-0.14;right;['left'];0.7455807999999706;0;1.246;3.8288353000002644;72
129;S_02;A;pre;2;59.82886551309128;[0.01696440000023358, 0.01659849999987273, 0.016555000000153086, 0.01750080000010712];79;5;0.050654300000132935;8.tif;mask.tiff;0.14;right;['right'];2.897865499999625;0;1.456;6.197856599999795;89
130;S_02;A;pre;2;59.82886551309128;[0.0169952999999623, 0.016436500000054366, 0.017085599999973056, 0.016320400000040536];76;5;0.04984250000006796;7.tif;mask.tiff;-0.14;right;['left'];0.7347876000003453;0;1.413;3.9849178999998003;86
131;S_02;A;pre;2;59.82886551309128;[0.01675550000027215, 0.016778299999714363, 0.017930800000158342, 0.015435400000114896];31;4;0.0501444999999876;8.tif;mask.tiff;0.14;right;['left'];0.5658901000001606;0;1.895;4.298523899999964;73
132;S_02;A;pre;2;59.82886551309128;[0.016675500000019383, 0.016681100000369042, 0.01669419999961974, 0.0172127000000728];11;2;0.050588000000061584;3.tif;mask.tiff;0.14;left;['right'];0.3714951000001747;0;0.909;3.121269199999915;37
133;S_02;A;pre;2;59.82886551309128;[0.016543300000193994, 0.016788200000064535, 0.01602229999980409, 0.017232000000149128];12;2;0.05004250000001775;7.tif;mask.tiff;-0.14;right;['left'];0.7601790000003348;0;1.757;4.359426500000154;38
134;S_02;A;pre;2;59.82886551309128;[0.017232599999715603, 0.016244800000094983, 0.016390899999805697, 0.016745100000207458];57;3;0.04938080000010814;2.tif;mask.tiff;0.14;left;['right'];0.5292144000000008;0;1.805;4.162537299999713;51
135;S_02;A;pre;2;59.82886551309128;[0.01608269999996992, 0.016716099999939615, 0.016865600000073755, 0.016881000000012136];65;4;0.05046270000002551;2.tif;mask.tiff;0.14;left;['right'];0.42399340000019947;0;1.125;3.390789699999914;67
136;S_02;A;pre;2;59.82886551309128;[0.01645250000001397, 0.016665000000102737, 0.016723199999887584, 0.01682780000010098];59;3;0.0502160000000913;3.tif;mask.tiff;0.14;left;['right'];0.45105629999989105;1;1.501;3.784684300000208;53
137;S_02;A;pre;2;59.82886551309128;[0.017057000000022526, 0.016401500000029046, 0.016312100000050123, 0.016933800000060728];84;3;0.049647400000139896;blank.tiff;mask.tiff;-0.14;a;['right'];3.419882400000006;0;1.549;6.802728500000285;48
138;S_02;A;pre;2;59.82886551309128;[0.016463200000089273, 0.016353999999864754, 0.016636800000014773, 0.016856299999744806];23;3;0.049847099999624334;8.tif;mask.tiff;0.14;right;['right'];0.3588983000004191;1;0.909;3.109092900000178;57
139;S_02;A;pre;2;59.82886551309128;[0.01594950000026074, 0.01711509999995542, 0.016953800000010233, 0.01623699999981909];97;4;0.05030589999978474;blank.tiff;mask.tiff;0.14;a;['right'];0.5233365999997659;0;1.141;3.5067400000002635;65
140;S_02;A;pre;2;59.82886551309128;[0.017204499999934342, 0.01724690000037299, 0.015802199999598088, 0.016977000000224507];39;5;0.050026100000195584;8.tif;mask.tiff;0.14;right;['left'];0.481069099999786;1;1.35;3.6645361000000776;89
141;S_02;A;pre;2;59.82886551309128;[0.0168257000000267, 0.016318200000114302, 0.016836499999953958, 0.021613299999899027];21;3;0.05476799999996729;7.tif;mask.tiff;0.14;right;['right'];0.18091439999989234;1;0.84;2.8636882999999216;55
142;S_02;A;pre;2;59.82886551309128;[0.01566640000010011, 0.016651699999783887, 0.018889500000113912, 0.014010599999892293];43;1;0.04955179999979009;3.tif;mask.tiff;0.14;left;['left'];0.4507493999999497;0;2.076;4.367877700000008;21
143;S_02;A;pre;2;59.82886551309128;[0.01602629999979399, 0.016681700000390265, 0.016923799999858602, 0.01643000000012762];58;3;0.05003550000037649;3.tif;mask.tiff;-0.14;left;['right'];0.6571039999998902;0;4.611;7.106102599999758;52
144;S_02;A;pre;2;59.82886551309128;[0.01696510000010676, 0.01669869999977891, 0.016531700000086857, 0.017276399999900605];3;1;0.05050679999976637;3.tif;mask.tiff;0.14;left;['left'];0.2809652000000824;1;2.365;4.481177899999693;21
145;S_02;A;pre;2;59.82886551309128;[0.016088899999886053, 0.017691200000172103, 0.015562300000055984, 0.01642970000011701];95;3;0.049683200000345096;blank.tiff;mask.tiff;0.14;a;['right'];0.46268370000007053;0;1.178;3.479248799999823;49
146;S_02;A;pre;2;59.82886551309128;[0.016153699999904347, 0.01707570000007763, 0.016378199999962817, 0.016461900000194873];10;2;0.04991580000023532;3.tif;mask.tiff;-0.14;left;['left'];0.41367659999968964;0;2.193;4.446067099999709;36
147;S_02;A;pre;2;59.82886551309128;[0.015845200000057957, 0.01662979999991876, 0.01750770000035118, 0.016492599999764934];89;5;0.05063010000003487;blank.tiff;mask.tiff;0.14;a;['right'];0.48255220000010013;0;1.315;3.632987899999989;81
148;S_02;A;pre;2;59.82886551309128;[0.016385800000080053, 0.01640629999974408, 0.016579300000103103, 0.016837199999827135];51;2;0.049822799999674316;3.tif;mask.tiff;0.14;left;['right'];1.072958700000072;0;1.548;4.456455100000312;37
149;S_02;A;pre;2;59.82886551309128;[0.016436200000043755, 0.01702019999993354, 0.01628919999984646, 0.017195300000366842];14;2;0.05050470000014684;8.tif;mask.tiff;-0.14;right;['left'];0.8091558999999506;0;1.332;3.9761130000001685;40
150;S_02;A;pre;2;59.82886551309128;[0.016064899999946647, 0.016547499999887805, 0.017280699999901117, 0.01639290000002802];93;2;0.05022109999981694;blank.tiff;mask.tiff;0.14;a;['right'];0.6627637000001414;0;2.292;4.7958754999999655;33
151;S_02;A;pre;2;59.82886551309128;[0.01682600000003731, 0.016753300000345916, 0.016454699999940203, 0.01671719999967536];85;3;0.04992519999996148;blank.tiff;mask.tiff;0.14;a;['right'];9.070949699999801;0;1.114;12.020969900000182;49
152;S_02;A;pre;2;59.82886551309128;[0.01585339999974167, 0.01742370000010851, 0.01613339999994423, 0.017200100000081875];78;5;0.05075720000013462;8.tif;mask.tiff;-0.14;right;['left'];0.6771825999999237;0;1.199;3.7092862999998033;88
153;S_02;A;pre;2;59.82886551309128;[0.01605059999974401, 0.01685589999988224, 0.016511799999989307, 0.016592299999956595];83;2;0.04995999999982814;blank.tiff;mask.tiff;0.14;a;['left'];0.8844589999998789;0;0.979;3.7015010000000075;33
154;S_02;A;pre;2;59.82886551309128;[0.01642439999977796, 0.016258200000265788, 0.01780430000007982, 0.016134499999679974];68;4;0.05019700000002558;7.tif;mask.tiff;-0.14;right;['right'];0.30915600000025734;1;0.914;3.0587892000003194;70
155;S_02;A;pre;2;59.82886551309128;[0.016770400000041263, 0.016613300000244635, 0.016744999999900756, 0.016911599999730242];54;2;0.050269899999875634;8.tif;mask.tiff;-0.14;right;['right'];0.23461850000012419;1;0.759;2.8338584999996783;40
156;S_02;A;pre;2;59.82886551309128;[0.017043199999989156, 0.016221800000039366, 0.017048899999736022, 0.0164388000002873];42;1;0.04970950000006269;3.tif;mask.tiff;-0.14;left;['left'];0.2151159000000007;0;0.676;2.7312231000000793;20
157;S_02;A;pre;2;59.82886551309128;[0.0167938999998114, 0.016851600000336475, 0.01755090000006021, 0.01647579999962545];19;3;0.050878300000022136;3.tif;mask.tiff;0.14;left;['right'];0.3863370999997642;0;2.715;4.936732699999993;53
158;S_02;A;pre;2;59.82886551309128;[0.0168733999998949, 0.01707250000026761, 0.016506999999819527, 0.016345000000001164];33;5;0.0499245000000883;2.tif;mask.tiff;0.14;left;['left'];0.27011110000012195;1;0.783;2.8861179000000448;83
159;S_02;A;pre;2;59.82886551309128;[0.01738080000041009, 0.015549999999620923, 0.016651200000069366, 0.0164308000003075];62;3;0.04863199999999779;8.tif;mask.tiff;-0.14;right;['left'];0.189566399999876;1;2.939;4.97183780000023;56
160;S_02;A;pre;2;59.82886551309128;[0.01732350000020233, 0.01594459999978426, 0.017206200000146055, 0.016792500000065047];87;4;0.04994329999999536;blank.tiff;mask.tiff;0.14;a;['right'];0.8787404000004244;0;1.123;3.844996700000138;65
161;S_02;A;pre;2;59.82886551309128;[0.01758109999991575, 0.015862899999774527, 0.016921600000387116, 0.016242700000020704];44;1;0.04902720000018235;7.tif;mask.tiff;-0.14;right;['right'];1.9471229000000676;0;1.226;5.013595700000224;22
162;S_02;A;pre;2;59.82886551309128;[0.01683790000015506, 0.017076000000088243, 0.01679359999980079, 0.016525699999874632];36;5;0.050395299999763665;7.tif;mask.tiff;-0.14;right;['right'];3.627282599999944;0;13.911;19.376818100000037;86
163;S_02;A;pre;2;59.82886551309128;[0.017249700000320445, 0.016559899999720074, 0.017002900000079535, 0.0163579000000027];35;5;0.04992069999980231;3.tif;mask.tiff;0.14;left;['left'];0.2714907999998104;1;0.679;2.7877803000001222;85
164;S_02;A;pre;2;59.82886551309128;[0.016612999999779277, 0.017106499999954394, 0.016021899999941525, 0.01677079999990383];98;5;0.04989919999979975;blank.tiff;mask.tiff;-0.14;a;['right'];1.5019438999997874;0;1.176;4.51844680000022;80
165;S_02;A;pre;2;59.82886551309128;[0.0166905000000952, 0.01699719999987792, 0.016793000000234315, 0.01634509999985312];7;1;0.050135299999965355;8.tif;mask.tiff;0.14;right;['right'];0.13885909999999058;1;0.74;2.7225533999999243;25
166;S_02;A;pre;2;59.82886551309128;[0.016835599999922124, 0.01672450000023673, 0.01705050000009578, 0.016016600000057224];8;2;0.049791600000389735;2.tif;mask.tiff;-0.14;left;['left'];0.5081547999998293;0;1.064;3.407194900000377;34
167;S_02;A;pre;2;59.82886551309128;[0.016459800000120595, 0.01745089999985794, 0.017831500000283995, 0.014882099999795173];66;4;0.05016449999993711;3.tif;mask.tiff;-0.14;left;['left'];0.6140725000000202;0;1.039;3.497525399999631;68
168;S_02;A;pre;2;59.82886551309128;[0.017217000000073313, 0.01650249999966036, 0.0171715999999833, 0.015739700000267476];38;5;0.049413799999911134;8.tif;mask.tiff;-0.14;right;['right'];0.2562634999999318;1;0.928;3.0234418000000005;88
169;S_02;A;pre;2;59.82886551309128;[0.016180199999780598, 0.016428600000381266, 0.016792399999758345, 0.0172139999999672];90;1;0.05043500000010681;blank.tiff;mask.tiff;-0.14;a;['left'];1.0472767000001113;0;1.194;4.080703099999937;16
170;S_02;A;pre;2;59.82886551309128;[0.016732800000227144, 0.016836499999953958, 0.016641900000195164, 0.016372199999750592];64;4;0.049850599999899714;2.tif;mask.tiff;-0.14;left;['left'];0.9599011000000246;0;1.341;4.142907500000092;66
171;S_02;A;pre;2;59.82886551309128;[0.016822399999909976, 0.0162678000001506, 0.017220300000190036, 0.01632549999976618];70;4;0.04981360000010682;8.tif;mask.tiff;-0.14;right;['right'];4.550131399999827;0;8.294;14.682745799999793;72
172;S_02;A;pre;2;59.82886551309128;[0.017588200000318466, 0.01644609999993918, 0.01621949999980643, 0.016975300000012794];80;1;0.0496408999997584;blank.tiff;mask.tiff;-0.14;a;['right'];3.359093099999882;0;1.024;6.226063600000089;16
173;S_02;A;pre;2;59.82886551309128;[0.01647899999989022, 0.016660100000081002, 0.016488100000060513, 0.01721380000026329];73;5;0.050362000000404805;2.tif;mask.tiff;0.14;left;['left'];0.31166230000008;1;0.697;2.8442356999998992;83
174;S_02;A;pre;2;59.82886551309128;[0.01581190000024435, 0.01734889999988809, 0.016167199999927107, 0.016709699999864824];25;4;0.05022579999968002;2.tif;mask.tiff;0.14;left;['left'];0.26358129999971425;1;1.277;3.3799284000001535;67
175;S_02;A;pre;2;59.82886551309128;[0.01628000000027896, 0.016574199999922712, 0.01777219999985391, 0.015272000000095431];9;2;0.049618399999872054;2.tif;mask.tiff;0.14;left;['left'];1.0780088000001342;0;0.809;3.727748600000268;35
176;S_02;A;pre;2;59.82886551309128;[0.01666449999993347, 0.01742289999992863, 0.015611300000273332, 0.017033799999808252];27;4;0.050068000000010215;3.tif;mask.tiff;0.14;left;['left'];0.6109568000001673;0;1.011;3.460994199999732;69
177;S_02;A;pre;2;59.82886551309128;[0.017587899999853107, 0.01701050000019677, 0.015783899999860296, 0.01673209999989922];77;5;0.049526499999956286;7.tif;mask.tiff;0.14;right;['right'];0.2892538000000968;1;1.224;3.3547027999998136;87
178;S_02;A;pre;2;59.82886551309128;[0.017567099999723723, 0.01732590000028722, 0.016166399999747227, 0.015811300000223127];15;2;0.049303600000257575;8.tif;mask.tiff;0.14;right;['right'];0.6044074999999793;1;1.341;4.486628699999983;41
179;S_02;A;pre;2;59.82886551309128;[0.016971600000033504, 0.016263799999705952, 0.017178300000068703, 0.017478100000062113];48;2;0.05092019999983677;2.tif;mask.tiff;-0.14;left;['left'];0.6618340999998509;0;1.157;3.66150239999979;34
180;S_02;A;pre;2;59.82886551309128;[0.016398999999637454, 0.016509700000369776, 0.01681639999969775, 0.016692300000158866];86;4;0.05001840000022639;blank.tiff;mask.tiff;-0.14;a;['left'];0.8274125000002641;0;1.028;3.693970000000263;64
181;S_02;A;pre;2;59.82886551309128;[0.01654740000003585, 0.016481799999837676, 0.016744000000016968, 0.016882600000371895];71;4;0.05010840000022654;8.tif;mask.tiff;0.14;right;['left'];5.421573200000239;0;1.527;8.78791769999998;73
182;S_02;A;pre;2;59.82886551309128;[0.01629060000004756, 0.017349799999919924, 0.016375499999867316, 0.0167820000001484];24;4;0.05050729999993564;2.tif;mask.tiff;-0.14;left;['right'];0.80390159999979;0;1.606;4.253530299999966;66
183;S_02;A;pre;2;59.82886551309128;[0.016386399999646528, 0.017173900000216236, 0.016483899999911955, 0.016748900000038702];4;1;0.05040670000016689;7.tif;mask.tiff;-0.14;right;['left'];0.7994208000000071;0;2.906;5.549156700000367;22
184;S_02;A;pre;2;59.82886551309128;[0.016693300000042655, 0.016371500000332162, 0.017011799999636423, 0.017233000000032916];67;4;0.0506163000000015;3.tif;mask.tiff;0.14;left;['left'];0.15921820000039588;1;0.98;2.976800699999785;69
185;S_02;A;pre;2;59.82886551309128;[0.018017800000052375, 0.015923100000236445, 0.01715039999999135, 0.016380499999741005];47;1;0.0494539999999688;8.tif;mask.tiff;0.14;right;['left'];0.4049667999997837;0;0.948;3.1887530000003608;25
186;S_02;A;pre;2;59.82886551309128;[0.01808630000004996, 0.015870600000198465, 0.016238400000020192, 0.017161099999611906];1;1;0.04927009999983056;2.tif;mask.tiff;0.14;left;['left'];0.9450490999997783;0;4.326;7.11123120000002;19
187;S_02;A;pre;2;59.82886551309128;[0.01733409999997093, 0.016121300000122574, 0.01645589999998265, 0.016756399999849236];50;2;0.04933359999995446;3.tif;mask.tiff;-0.14;left;['right'];3.880081899999823;0;1.029;6.748309199999767;36
188;S_02;A;pre;2;59.82886551309128;[0.015877199999977165, 0.017336400000203867, 0.01681979999966643, 0.01577530000031402];82;2;0.049931500000184315;blank.tiff;mask.tiff;-0.14;a;['left'];3.9117331000002196;0;1.794;7.544661099999757;32
189;S_02;A;pre;2;59.82886551309128;[0.0165302000000338, 0.017585000000053697, 0.016338599999926373, 0.016169600000011997];92;2;0.050093199999992066;blank.tiff;mask.tiff;-0.14;a;['left'];0.4007341000001361;0;0.727;2.9669128000000455;32
190;S_02;A;pre;2;59.82886551309128;[0.01707570000007763, 0.01623990000007325, 0.016913899999963178, 0.01628759999994145];29;4;0.049441399999977875;7.tif;mask.tiff;0.14;right;['right'];0.4025148000000627;1;0.923;3.1683545999999296;71
191;S_02;A;pre;2;59.82886551309128;[0.01723740000034013, 0.016856699999607372, 0.016004700000394223, 0.016504400000030728];5;1;0.04936580000003232;7.tif;mask.tiff;0.14;right;['left'];2.8639235999999073;0;1.144;5.851975000000039;23
192;S_02;A;pre;2;59.82886551309128;[0.016926300000250194, 0.016561899999942398, 0.017001899999741, 0.016202100000100472];2;1;0.04976589999978387;3.tif;mask.tiff;-0.14;left;['left'];0.5661674999996649;0;1.112;3.5163149999998495;20
193;S_02;A;pre;2;59.82886551309128;[0.01693650000015623, 0.01692570000022897, 0.01697219999959998, 0.01676370000041061];45;1;0.05066160000023956;7.tif;mask.tiff;0.14;right;['right'];0.38796940000020186;1;1.092;3.3209928000001128;23
194;S_02;A;pre;2;59.82886551309128;[0.016191599999729078, 0.017018600000028528, 0.016804700000193407, 0.016837799999848357];94;3;0.05066110000007029;blank.tiff;mask.tiff;-0.14;a;['right'];0.4218049000000974;0;1.165;3.422141399999873;48
195;S_02;A;pre;2;59.82886551309128;[0.01663479999979245, 0.016625000000203727, 0.01664279999977225, 0.017338099999960832];53;2;0.05060589999993681;7.tif;mask.tiff;0.14;right;['right'];0.1105385999999271;1;0.991;2.9431244000002152;39
196;S_02;A;pre;2;59.82886551309128;[0.016992199999549484, 0.01670410000042466, 0.017008799999985058, 0.017208699999628152];81;1;0.05092160000003787;blank.tiff;mask.tiff;0.14;a;['left'];0.35367550000000847;0;1.024;3.219983399999819;17
197;S_02;A;pre;2;59.82886551309128;[0.017260699999951612, 0.01645220000000336, 0.017189500000313274, 0.016472799999974086];99;5;0.05011450000029072;blank.tiff;mask.tiff;0.14;a;['right'];0.09546279999995022;0;1.496;3.4290501000000404;81
198;S_02;A;pre;2;59.82886551309128;[0.016407300000082614, 0.017035099999702652, 0.016661200000271492, 0.016592199999649893];20;3;0.05028849999962404;7.tif;mask.tiff;-0.14;right;['left'];1.1209641999998894;0;1.907;4.870732900000348;54
199;S_02;A;pre;2;59.82886551309128;[0.01746659999980693, 0.015588199999911012, 0.016762600000220118, 0.01651259999971444];56;3;0.04886339999984557;2.tif;mask.tiff;-0.14;left;['left'];0.623446700000386;0;12.141;14.606484099999761;50
200;S_02;A;pre;3;59.82886551309128;[0.017453300000397576, 0.01659739999968224, 0.01606420000007347, 0.01663700000017343];47;1;0.04929859999992914;8.tif;mask.tiff;0.14;right;['right'];0.402457300000151;1;1.711;3.9524575999998888;25
201;S_02;A;pre;3;59.82886551309128;[0.016825199999857432, 0.016581899999891903, 0.016754800000398973, 0.017025999999987107];91;1;0.05036270000027798;blank.tiff;mask.tiff;0.14;a;['left'];0.31485250000014275;0;2.224;4.381542599999648;17
202;S_02;A;pre;3;59.82886551309128;[0.015943300000344607, 0.017641699999785487, 0.01574320000008811, 0.01673590000018521];15;2;0.05012080000005881;8.tif;mask.tiff;0.14;right;['right'];0.2747620999998617;1;0.874;2.9911072999998396;41
203;S_02;A;pre;3;59.82886551309128;[0.01773880000018835, 0.0164785000001757, 0.016594499999882828, 0.016904999999951542];11;2;0.04997800000001007;3.tif;mask.tiff;0.14;left;['left'];0.30771169999979975;0;0.899;3.042024599999877;37
204;S_02;A;pre;3;59.82886551309128;[0.016518900000392023, 0.017018199999711214, 0.016831100000217702, 0.015991699999631237];89;5;0.049840999999560154;blank.tiff;mask.tiff;0.14;a;['right'];0.32449929999984306;0;1.092;3.2575174000003244;81
205;S_02;A;pre;3;59.82886551309128;[0.016912199999751465, 0.015897400000085327, 0.016452400000162015, 0.01673709999977291];86;4;0.04908690000002025;blank.tiff;mask.tiff;-0.14;a;['left'];0.8657216000001426;0;1.39;4.098617699999977;64
206;S_02;A;pre;3;59.82886551309128;[0.017188599999826693, 0.0168282999998155, 0.01698980000037409, 0.016232599999966624];21;3;0.05005070000015621;7.tif;mask.tiff;0.14;right;['right'];5.106984499999726;0;2.326;9.272629499999766;55
207;S_02;A;pre;3;59.82886551309128;[0.016777400000137277, 0.016667800000050192, 0.01684339999974327, 0.017156400000203575];51;2;0.05066759999999704;3.tif;mask.tiff;0.14;left;['left'];5.139122800000223;0;1.484;8.455949600000167;37
208;S_02;A;pre;3;59.82886551309128;[0.01652829999966343, 0.0163924000003135, 0.01705889999993815, 0.016281400000025315];7;1;0.049732700000276964;8.tif;mask.tiff;0.14;right;['right'];0.24222640000016327;1;1.083;3.159306900000047;25
209;S_02;A;pre;3;59.82886551309128;[0.01691670000036538, 0.01703349999979764, 0.016636599999856116, 0.016687300000285177];85;3;0.050357399999938934;blank.tiff;mask.tiff;0.14;a;['left'];3.553515399999924;0;8.445;13.836655899999641;49
210;S_02;A;pre;3;59.82886551309128;[0.01747350000005099, 0.016469599999709317, 0.016580400000293594, 0.017121899999892776];0;1;0.050171899999895686;2.tif;mask.tiff;-0.14;left;['right'];0.35744230000000243;0;1.925;4.124368499999946;18
211;S_02;A;pre;3;59.82886551309128;[0.01689810000016223, 0.017453999999816006, 0.015905300000213174, 0.01672869999993054];61;3;0.05008799999995972;7.tif;mask.tiff;0.14;right;['left'];0.5806307000002562;0;4.293;6.714770700000372;55
212;S_02;A;pre;3;59.82886551309128;[0.0171675999999934, 0.016313500000251224, 0.016897399999834306, 0.016624899999897025];24;4;0.049835799999982555;2.tif;mask.tiff;-0.14;left;['right'];5.317120499999874;0;5.005;12.167004299999917;66
213;S_02;A;pre;3;59.82886551309128;[0.017145999999684136, 0.015929700000015146, 0.017027800000050775, 0.017067900000256486];33;5;0.050025400000322406;2.tif;mask.tiff;0.14;left;['left'];0.481994400000076;1;1.379;3.6978291999998874;83
214;S_02;A;pre;3;59.82886551309128;[0.015675199999805045, 0.017868800000087504, 0.015498899999784044, 0.017560600000251725];79;5;0.05092830000012327;8.tif;mask.tiff;0.14;right;['left'];0.7223125000000437;0;1.325;3.888070400000288;89
215;S_02;A;pre;3;59.82886551309128;[0.01704799999970419, 0.01701520000005985, 0.016629400000056194, 0.017024899999796617];67;4;0.05066949999991266;3.tif;mask.tiff;0.14;left;['right'];0.6321239999997488;0;2.524;4.998695400000088;69
216;S_02;A;pre;3;59.82886551309128;[0.016588399999818648, 0.017087400000036723, 0.016345900000032998, 0.017143399999895337];82;2;0.05057669999996506;blank.tiff;mask.tiff;-0.14;a;['left'];0.7411904999999024;0;1.073;3.6574344000000565;32
217;S_02;A;pre;3;59.82886551309128;[0.016810599999644182, 0.016834700000345038, 0.015869800000018586, 0.016967399999884947];84;3;0.04967190000024857;blank.tiff;mask.tiff;-0.14;a;['right'];1.1337856000000102;0;1.612;4.583757299999888;48
218;S_02;A;pre;3;59.82886551309128;[0.017696499999601656, 0.015562400000362686, 0.017189799999869138, 0.01690439999993032];23;3;0.04965660000016214;8.tif;mask.tiff;0.14;right;['left'];0.8601810999998634;1;1.158;3.8603901999999835;57
219;S_02;A;pre;3;59.82886551309128;[0.016966300000149204, 0.016800899999907415, 0.01591020000023491, 0.017169899999771587];13;2;0.04988099999991391;7.tif;mask.tiff;0.14;right;['left'];0.5855879999999161;0;2.588;5.018459299999904;39
220;S_02;A;pre;3;59.82886551309128;[0.01636559999997189, 0.016791600000033213, 0.016948599999977887, 0.016565999999784253];78;5;0.050306199999795354;8.tif;mask.tiff;-0.14;right;['right'];0.6559583000002931;0;1.824;4.3228094000000965;88
221;S_02;A;pre;3;59.82886551309128;[0.01587229999995543, 0.016591999999945983, 0.017074999999749707, 0.016813700000056997];1;1;0.05048069999975269;2.tif;mask.tiff;0.14;left;['left'];1.3621406000002025;0;0.943;4.145522700000129;19
222;S_02;A;pre;3;59.82886551309128;[0.01584339999999429, 0.01740430000018023, 0.01627550000011979, 0.01651739999988422];60;3;0.05019720000018424;7.tif;mask.tiff;-0.14;right;['right'];5.596992699999646;0;1.343;8.780322799999794;54
223;S_02;A;pre;3;59.82886551309128;[0.016606700000011188, 0.017067199999928562, 0.01601249999976062, 0.016525300000012066];70;4;0.04960499999970125;8.tif;mask.tiff;-0.14;right;['right'];0.2374827000003279;1;0.844;2.9203698999999688;72
224;S_02;A;pre;3;59.82886551309128;[0.016062499999861757, 0.01683050000019648, 0.016744000000016968, 0.016703599999800645];87;4;0.05027810000001409;blank.tiff;mask.tiff;0.14;a;['left'];0.9814448000001903;0;0.967;3.780745399999887;65
225;S_02;A;pre;3;59.82886551309128;[0.016632899999876827, 0.017058299999916926, 0.016297600000143575, 0.016910599999846454];5;1;0.050266499999906955;7.tif;mask.tiff;0.14;right;['right'];0.1316225000000486;1;0.862;2.8316392000001542;23
226;S_02;A;pre;3;59.82886551309128;[0.0163910000001124, 0.016624400000182504, 0.016691899999841553, 0.016652199999953154];37;5;0.04996849999997721;7.tif;mask.tiff;0.14;right;['left'];0.861345799999981;0;0.829;3.52780359999997;87
227;S_02;A;pre;3;59.82886551309128;[0.016649000000143133, 0.017001300000174524, 0.016362999999728345, 0.01620600000023842];98;5;0.04957030000014129;blank.tiff;mask.tiff;-0.14;a;['left'];0.6984092999996392;0;0.996;3.531163900000138;80
228;S_02;A;pre;3;59.82886551309128;[0.01578490000019883, 0.016439300000001822, 0.017323000000033062, 0.016740399999889632];20;3;0.050502699999924516;7.tif;mask.tiff;-0.14;right;['right'];1.0427239000000554;0;0.908;3.793734100000165;54
229;S_02;A;pre;3;59.82886551309128;[0.016284600000290084, 0.01788910000004762, 0.015885399999660876, 0.016442100000404025];63;3;0.05021660000011252;8.tif;mask.tiff;0.14;right;['right'];0.8495049999996809;0;2.593;5.2825756000002;57
230;S_02;A;pre;3;59.82886551309128;[0.017424900000150956, 0.016701500000181113, 0.016237699999692268, 0.016859199999998964];65;4;0.049798399999872345;2.tif;mask.tiff;0.14;left;['left'];0.3644301999997879;1;1.318;3.530011299999842;67
231;S_02;A;pre;3;59.82886551309128;[0.017188499999974738, 0.016229399999701855, 0.016549100000247563, 0.017465200000060577];73;5;0.050243700000009994;2.tif;mask.tiff;0.14;left;['left'];0.2367380000000594;1;0.776;2.854217399999925;83
232;S_02;A;pre;3;59.82886551309128;[0.016658800000186602, 0.016839899999922636, 0.016516700000011042, 0.01712230000021009];31;4;0.05047890000014377;8.tif;mask.tiff;0.14;right;['right'];0.18301449999989927;1;0.976;2.998880199999803;73
233;S_02;A;pre;3;59.82886551309128;[0.01662820000001375, 0.016720700000405486, 0.016524699999990844, 0.01651629999969373];18;3;0.04976170000009006;3.tif;mask.tiff;-0.14;left;['right'];1.1101276000003963;1;16.257;19.210032800000135;52
234;S_02;A;pre;3;59.82886551309128;[0.017334500000288244, 0.016272099999696366, 0.017247600000246166, 0.01651129999982004];97;4;0.05003099999976257;blank.tiff;mask.tiff;0.14;a;['right'];0.7953767999997581;0;12.558;15.1949268999997;65
235;S_02;A;pre;3;59.82886551309128;[0.01674780000030296, 0.016385800000080053, 0.017941899999641464, 0.01625670000021273];94;3;0.05058439999993425;blank.tiff;mask.tiff;-0.14;a;['left'];0.7967094000000543;0;0.964;3.59489880000001;48
236;S_02;A;pre;3;59.82886551309128;[0.017085700000279758, 0.016685299999608105, 0.017078200000014476, 0.015941400000428985];38;5;0.049704900000051566;8.tif;mask.tiff;-0.14;right;['right'];0.3852287999998225;0;1.099;3.3181854000004023;88
237;S_02;A;pre;3;59.82886551309128;[0.016532999999981257, 0.015941200000270328, 0.01741119999996954, 0.016241700000136916];48;2;0.049594100000376784;2.tif;mask.tiff;-0.14;left;['left'];0.7994524000000638;0;6.491;9.132425100000091;34
238;S_02;A;pre;3;59.82886551309128;[0.01648299999988012, 0.016783399999894755, 0.01693680000016684, 0.015852900000027148];45;1;0.04957310000008874;7.tif;mask.tiff;0.14;right;['right'];0.27943279999999504;1;1.206;3.329417000000376;23
239;S_02;A;pre;3;59.82886551309128;[0.01615719999972498, 0.01681430000007822, 0.01707780000015191, 0.015753399999994144];83;2;0.049645500000224274;blank.tiff;mask.tiff;0.14;a;['right'];1.6965916999997717;0;1.08;4.612616899999921;33
240;S_02;A;pre;3;59.82886551309128;[0.017211300000326446, 0.015440799999851151, 0.017484299999978248, 0.016447099999822967];99;5;0.049372199999652366;blank.tiff;mask.tiff;0.14;a;['right'];0.660678100000041;0;0.993;3.4938217000003533;81
241;S_02;A;pre;3;59.82886551309128;[0.016817700000046898, 0.016260099999726663, 0.01680050000004485, 0.018036999999822];93;2;0.05109759999959351;blank.tiff;mask.tiff;0.14;a;['left'];0.8158276000003752;0;1.097;3.749374500000158;33
242;S_02;A;pre;3;59.82886551309128;[0.016222499999912543, 0.01670800000010786, 0.016933200000039506, 0.017304999999851134];2;1;0.0509461999999985;3.tif;mask.tiff;-0.14;left;['right'];0.47007090000033713;0;1.008;3.32043879999992;20
243;S_02;A;pre;3;59.82886551309128;[0.01759379999975863, 0.016232700000273326, 0.016935799999828305, 0.016303700000207755];44;1;0.049472200000309385;7.tif;mask.tiff;-0.14;right;['left'];0.6792717999996967;0;0.911;3.42911869999989;22
244;S_02;A;pre;3;59.82886551309128;[0.01679359999980079, 0.016640000000279542, 0.016654599999583297, 0.01635610000039378];96;4;0.04965070000025662;blank.tiff;mask.tiff;-0.14;a;['right'];0.42273140000042986;0;1.358;3.622987799999919;64
245;S_02;A;pre;3;59.82886551309128;[0.017076199999792152, 0.016007799999897543, 0.017882900000131485, 0.015534199999819975];50;2;0.049424899999849004;3.tif;mask.tiff;-0.14;left;['right'];0.7718567000001713;0;1.255;3.8720585999999457;36
246;S_02;A;pre;3;59.82886551309128;[0.01655629999959274, 0.016558500000428467, 0.01650999999992564, 0.016413399999692047];66;4;0.04948190000004615;3.tif;mask.tiff;-0.14;left;['right'];2.408249000000069;0;1.326;5.574964800000089;68
247;S_02;A;pre;3;59.82886551309128;[0.01697070000000167, 0.01674379999985831, 0.01646660000005795, 0.016730700000152865];4;1;0.04994110000006913;7.tif;mask.tiff;-0.14;right;['right'];0.557855500000187;0;1.103;3.507723200000328;22
248;S_02;A;pre;3;59.82886551309128;[0.01645200000029945, 0.016937200000029407, 0.016067199999724835, 0.016352399999959744];92;2;0.049356799999713985;blank.tiff;mask.tiff;-0.14;a;['right'];4.321083499999986;0;2.898;9.055824699999903;32
249;S_02;A;pre;3;59.82886551309128;[0.0170376999999462, 0.01641059999974459, 0.01666720000002897, 0.0168271000002278];35;5;0.04990490000000136;3.tif;mask.tiff;0.14;left;['left'];0.5388864999999896;1;0.695;3.072230799999943;85
250;S_02;A;pre;3;59.82886551309128;[0.017094599999836646, 0.01666380000006029, 0.015950299999985873, 0.017182799999773124];34;5;0.04979689999981929;3.tif;mask.tiff;-0.14;left;['left'];0.45944930000041495;0;0.839;3.1423515999999836;84
251;S_02;A;pre;3;59.82886551309128;[0.017577500000243163, 0.016557099999772618, 0.016139300000304502, 0.017139699999916047];76;5;0.049836099999993166;7.tif;mask.tiff;-0.14;right;['right'];0.5572151000001213;0;14.896;17.28633059999993;86
252;S_02;A;pre;3;59.82886551309128;[0.017721300000175688, 0.015628099999958067, 0.01663430000007793, 0.016682500000115397];74;5;0.04894490000015139;3.tif;mask.tiff;-0.14;left;['right'];0.8871926000001622;0;1.045;3.770329800000127;84
253;S_02;A;pre;3;59.82886551309128;[0.01796009999998205, 0.01580629999989469, 0.016451899999992747, 0.01706899999999223];46;1;0.04932719999987967;8.tif;mask.tiff;-0.14;right;['right'];0.7531123999997362;0;0.86;3.4538375000001906;24
254;S_02;A;pre;3;59.82886551309128;[0.01710880000018733, 0.016375499999867316, 0.017834600000242062, 0.016189399999802845];62;3;0.05039949999991222;8.tif;mask.tiff;-0.14;right;['left'];0.7041211000000658;0;0.892;3.437344800000119;56
255;S_02;A;pre;3;59.82886551309128;[0.016976200000044628, 0.01666509999995469, 0.016684199999872362, 0.0166137000001072];32;5;0.049962999999934254;2.tif;mask.tiff;-0.14;left;['right'];0.513061099999959;0;0.854;3.213625399999728;82
256;S_02;A;pre;3;59.82886551309128;[0.016201100000216684, 0.017499300000054063, 0.01684900000009293, 0.01651399999991554];58;3;0.05086230000006253;3.tif;mask.tiff;-0.14;left;['left'];0.4097417000002679;0;1.128;3.3766681999995853;52
257;S_02;A;pre;3;59.82886551309128;[0.017040699999597564, 0.016435400000318623, 0.017464600000039354, 0.016507799999999406];41;1;0.05040780000035738;2.tif;mask.tiff;0.14;left;['right'];0.09953550000000178;1;0.991;2.9330307000000175;19
258;S_02;A;pre;3;59.82886551309128;[0.016400399999838555, 0.017233999999916705, 0.016639500000110274, 0.016345600000022387];30;4;0.050219100000049366;8.tif;mask.tiff;-0.14;right;['right'];6.227916900000309;0;3.248;11.310898900000211;72
259;S_02;A;pre;3;59.82886551309128;[0.017062599999917438, 0.016374499999983527, 0.016618900000139547, 0.017031699999733974];49;2;0.05002509999985705;2.tif;mask.tiff;0.14;left;['left'];0.33183869999993476;1;1.009;3.180489200000011;35
260;S_02;A;pre;3;59.82886551309128;[0.017076199999792152, 0.016925500000070315, 0.016229400000156602, 0.016435600000022532];72;5;0.04959050000024945;2.tif;mask.tiff;-0.14;left;['left'];0.4224223000001075;0;0.994;3.2552528999999595;82
261;S_02;A;pre;3;59.82886551309128;[0.016219299999647774, 0.016642500000216387, 0.01681559999997262, 0.016552600000068196];3;1;0.0500107000002572;3.tif;mask.tiff;0.14;left;['right'];0.4927889000000505;0;1.011;3.342120799999975;21
262;S_02;A;pre;3;59.82886551309128;[0.01655399999981455, 0.01677060000019992, 0.01591119999966395, 0.016979600000013306];39;5;0.049661399999877176;8.tif;mask.tiff;0.14;right;['left'];0.7440139999998792;0;0.858;3.443638899999769;89
263;S_02;A;pre;3;59.82886551309128;[0.01665129999992132, 0.016782799999873532, 0.015736500000002707, 0.01705870000023424];55;2;0.04957800000011048;8.tif;mask.tiff;0.14;right;['left'];0.4099450999997316;0;1.043;3.2922441000000617;41
264;S_02;A;pre;3;59.82886551309128;[0.016819100000248, 0.017228199999863136, 0.016613000000234024, 0.0157933000000412];16;3;0.04963450000013836;2.tif;mask.tiff;-0.14;left;['left'];0.27680419999978767;1;0.758;2.876614199999949;50
265;S_02;A;pre;3;59.82886551309128;[0.016048999999838998, 0.017510000000129367, 0.015851300000122137, 0.016864299999724608];26;4;0.05022559999997611;3.tif;mask.tiff;-0.14;left;['left'];1.3994161000000531;0;1.244;4.482472700000017;68
266;S_02;A;pre;3;59.82886551309128;[0.017575699999724748, 0.01602050000019517, 0.01790389999996478, 0.015425199999754113];81;1;0.04934959999991406;blank.tiff;mask.tiff;0.14;a;['left'];0.7376718999998957;0;5.73;8.304808599999888;17
267;S_02;A;pre;3;59.82886551309128;[0.017001199999867822, 0.01723279999987426, 0.01635759999999209, 0.01625079999985246];12;2;0.04984119999971881;7.tif;mask.tiff;-0.14;right;['right'];0.19292390000009618;1;0.897;2.926843799999915;38
268;S_02;A;pre;3;59.82886551309128;[0.017245999999886408, 0.0161352000000079, 0.01687420000007478, 0.016559700000016164];52;2;0.04956910000009884;7.tif;mask.tiff;-0.14;right;['right'];0.5447844000000259;0;0.842;3.2270550999996885;38
269;S_02;A;pre;3;59.82886551309128;[0.016083900000012363, 0.017105899999933172, 0.016698500000075, 0.016856799999914074];77;5;0.050661199999922246;7.tif;mask.tiff;0.14;right;['left'];0.24566860000004453;1;1.543;3.6289287999998123;87
270;S_02;A;pre;3;59.82886551309128;[0.01731110000037006, 0.016421299999819894, 0.017486700000063138, 0.016323199999987992];68;4;0.05023119999987102;7.tif;mask.tiff;-0.14;right;['right'];0.13407069999993837;0;0.992;2.9671032999999625;70
271;S_02;A;pre;3;59.82886551309128;[0.01716579999992973, 0.016879599999811035, 0.017087700000047334, 0.015484999999898719];27;4;0.04945229999975709;3.tif;mask.tiff;0.14;left;['left'];0.4767658000000665;0;2.498;4.809708799999953;69
272;S_02;A;pre;3;59.82886551309128;[0.017345799999930023, 0.016076500000053784, 0.016676900000220485, 0.01639419999992242];28;4;0.04914760000019669;7.tif;mask.tiff;-0.14;right;['right'];3.3903324000002613;0;2.272;7.507693600000039;70
273;S_02;A;pre;3;59.82886551309128;[0.017210699999850476, 0.01657100000011269, 0.01644299999998111, 0.016545399999813526];10;2;0.04955939999990733;3.tif;mask.tiff;-0.14;left;['left'];1.270311700000093;0;1.454;4.569710899999791;36
274;S_02;A;pre;3;59.82886551309128;[0.01585369999975228, 0.016845099999954982, 0.017927400000189664, 0.01603209999984756];6;1;0.050804599999992206;8.tif;mask.tiff;-0.14;right;['left'];1.5834360000003471;0;3.28;6.700606699999753;24
275;S_02;A;pre;3;59.82886551309128;[0.016937599999891972, 0.016911400000026333, 0.016468799999984185, 0.01698630000009871];57;3;0.05036650000010923;2.tif;mask.tiff;0.14;left;['left'];0.20231779999994615;1;0.796;2.8356471000001875;51
276;S_02;A;pre;3;59.82886551309128;[0.01751800000010917, 0.016043599999647995, 0.016085900000234687, 0.01745260000006965];90;1;0.049582099999952334;blank.tiff;mask.tiff;-0.14;a;['right'];0.528007400000206;0;1.483;3.8450342000001;16
277;S_02;A;pre;3;59.82886551309128;[0.0124124999997548, 0.016465700000026118, 0.017189200000302662, 0.016313499999796477];56;3;0.04996840000012526;2.tif;mask.tiff;-0.14;left;['right'];0.47309309999991456;0;1.46;3.7726982999997745;50
278;S_02;A;pre;3;59.82886551309128;[0.017058199999610224, 0.016692000000148255, 0.016580599999997503, 0.016134800000145333];22;3;0.04940740000029109;8.tif;mask.tiff;-0.14;right;['right'];1.857203600000048;0;3.359;7.057195200000024;56
279;S_02;A;pre;3;59.82886551309128;[0.017475099999956, 0.016496200000347017, 0.016810099999929662, 0.016719299999749637];43;1;0.050025600000026316;3.tif;mask.tiff;0.14;left;['right'];0.7160620999998173;0;2.659;5.214756600000328;21
280;S_02;A;pre;3;59.82886551309128;[0.016955999999936466, 0.0167050999998537, 0.01705530000026556, 0.01639660000000731];29;4;0.05015700000012657;7.tif;mask.tiff;0.14;right;['right'];0.35769729999992705;1;0.823;3.0245866000000206;71
281;S_02;A;pre;3;59.82886551309128;[0.016402499999912834, 0.017058800000086194, 0.01670460000013918, 0.016724499999781983];19;3;0.05048790000000736;3.tif;mask.tiff;0.14;left;['right'];0.773816700000225;1;0.868;3.473755699999856;53
282;S_02;A;pre;3;59.82886551309128;[0.016411900000093738, 0.016764499999680993, 0.01643530000001192, 0.016729400000258465];17;3;0.04992919999995138;2.tif;mask.tiff;0.14;left;['left'];0.19720589999997173;1;0.861;2.896384400000443;51
283;S_02;A;pre;3;59.82886551309128;[0.01631760000009308, 0.017274799999995594, 0.016444200000023557, 0.016367100000024948];71;4;0.0500861000000441;8.tif;mask.tiff;0.14;right;['right'];0.591719799999737;0;0.962;3.3918784000002233;73
284;S_02;A;pre;3;59.82886551309128;[0.01726490000010017, 0.01637090000031094, 0.01776949999975841, 0.015585500000270258];36;5;0.04972590000033961;7.tif;mask.tiff;-0.14;right;['right'];0.186955399999988;1;1.34;3.3705839999997806;86
285;S_02;A;pre;3;59.82886551309128;[0.016907000000173866, 0.01682909999999538, 0.017001599999730388, 0.016229300000304647];42;1;0.050060000000030414;3.tif;mask.tiff;-0.14;left;['right'];0.6148686999999882;0;1.124;3.581547000000228;20
286;S_02;A;pre;3;59.82886551309128;[0.01620649999995294, 0.016881999999895925, 0.017361300000175106, 0.016153600000052393];75;5;0.050396900000123424;3.tif;mask.tiff;0.14;left;['left'];0.2847200999999586;1;1.497;3.6176313000000846;85
287;S_02;A;pre;3;59.82886551309128;[0.016786400000000867, 0.016904800000247633, 0.01686459999973522, 0.01637879999998404];69;4;0.05014819999996689;7.tif;mask.tiff;0.14;right;['right'];0.6860136999998758;1;0.879;3.4024937000003774;71
288;S_02;A;pre;3;59.82886551309128;[0.016458500000226195, 0.0173504999997931, 0.01631889999998748, 0.016098200000215];59;3;0.04976759999999558;3.tif;mask.tiff;0.14;left;['right'];1.4669851000003291;0;1.205;4.5166134999999485;53
289;S_02;A;pre;3;59.82886551309128;[0.016490699999849312, 0.017254899999898043, 0.01655430000027991, 0.015790299999935087];9;2;0.04959950000011304;2.tif;mask.tiff;0.14;left;['left'];1.8741122999999789;0;1.11;4.825054800000089;35
290;S_02;A;pre;3;59.82886551309128;[0.016744199999720877, 0.01651029999993625, 0.016831400000228314, 0.016670299999987037];80;1;0.0500120000001516;blank.tiff;mask.tiff;-0.14;a;['left'];0.9050905999997667;0;1.279;4.021151599999939;16
291;S_02;A;pre;3;59.82886551309128;[0.017505499999970198, 0.01614419999987149, 0.016524199999821576, 0.016797300000234827];40;1;0.04946569999992789;2.tif;mask.tiff;-0.14;left;['left'];0.6035366999999496;0;1.132;3.5708707999997387;18
292;S_02;A;pre;3;59.82886551309128;[0.01665019999973083, 0.016550199999983306, 0.016270400000394147, 0.016740999999910855];14;2;0.04956160000028831;8.tif;mask.tiff;-0.14;right;['right'];0.21632469999985915;1;2.692;4.749673000000257;40
293;S_02;A;pre;3;59.82886551309128;[0.016028000000005704, 0.01630280000017592, 0.017432300000109535, 0.016588399999818648];64;4;0.050323500000104104;2.tif;mask.tiff;-0.14;left;['left'];0.2099910000001728;1;0.742;2.793214600000283;66
294;S_02;A;pre;3;59.82886551309128;[0.015744899999845074, 0.016709999999875436, 0.017537499999889405, 0.016326700000263372];95;3;0.05057420000002821;blank.tiff;mask.tiff;0.14;a;['right'];0.23123219999979483;0;0.691;2.7645391999999447;49
295;S_02;A;pre;3;59.82886551309128;[0.016610599999694386, 0.016919099999995524, 0.016978200000266952, 0.016409099999691534];53;2;0.05030639999995401;7.tif;mask.tiff;0.14;right;['right'];0.16255899999987378;1;0.733;2.72800849999976;39
296;S_02;A;pre;3;59.82886551309128;[0.016639999999824795, 0.017272200000206794, 0.016487299999880634, 0.015854700000090816];25;4;0.049614200000178243;2.tif;mask.tiff;0.14;left;['left'];0.15052319999995234;1;0.717;2.7003482000000076;67
297;S_02;A;pre;3;59.82886551309128;[0.016529399999853922, 0.016349300000001676, 0.01681860000007873, 0.017266800000015792];54;2;0.0504347000000962;8.tif;mask.tiff;-0.14;right;['right'];4.2338174000001345;0;0.981;7.049672200000259;40
298;S_02;A;pre;3;59.82886551309128;[0.016833500000302593, 0.016361899999992602, 0.016596599999957107, 0.016860299999734707];88;5;0.049818799999684416;blank.tiff;mask.tiff;-0.14;a;['left'];0.40034479999985706;0;1.112;3.3493999000002077;80
299;S_02;A;pre;3;59.82886551309128;[0.016674399999828893, 0.017164500000035332, 0.016373400000247784, 0.016608999999789376];8;2;0.05014690000007249;2.tif;mask.tiff;-0.14;left;['left'];0.5450013999998191;0;4.522;6.9120075000000725;34
300;S_02;A;pre;4;59.82886551309128;[0.01646600000003673, 0.017229200000201672, 0.016449700000066514, 0.01623139999992418];64;4;0.049910300000192365;2.tif;mask.tiff;-0.14;left;['left'];0.1882762999998704;1;0.793;2.8215798000001087;66
301;S_02;A;pre;4;59.82886551309128;[0.01697650000005524, 0.01723519999995915, 0.017066200000044773, 0.01590959999975894];68;4;0.05021099999976286;7.tif;mask.tiff;-0.14;right;['right'];1.7774657999998453;0;1.306;4.927248299999974;70
302;S_02;A;pre;4;59.82886551309128;[0.017083700000057433, 0.01693729999988136, 0.017087100000026112, 0.01591439999992872];85;3;0.04993879999983619;blank.tiff;mask.tiff;0.14;a;['left'];0.1773032000000967;1;0.809;2.8277312000000165;49
303;S_02;A;pre;4;59.82886551309128;[0.016773700000157987, 0.01663059999964389, 0.01670010000043476, 0.01638509999975213];98;5;0.04971579999983078;blank.tiff;mask.tiff;-0.14;a;['left'];0.6230133999997634;0;0.874;3.3393409000000247;80
304;S_02;A;pre;4;59.82886551309128;[0.016403600000103324, 0.017191199999615492, 0.016543100000035338, 0.016562900000280933];20;3;0.05029719999993176;7.tif;mask.tiff;-0.14;right;['right'];0.29631430000017644;0;1.166;3.2955996999999115;54
305;S_02;A;pre;4;59.82886551309128;[0.017356999999719847, 0.016342900000381633, 0.016830399999889778, 0.016400399999838555];69;4;0.049573700000109966;7.tif;mask.tiff;0.14;right;['right'];0.8513796000002003;0;3.489;6.184162300000025;71
306;S_02;A;pre;4;59.82886551309128;[0.01671780000015133, 0.0166945000000851, 0.016768299999966985, 0.016576900000018213];84;3;0.0500397000000703;blank.tiff;mask.tiff;-0.14;a;['left'];0.6882830999998077;0;1.947;4.4715172999999595;48
307;S_02;A;pre;4;59.82886551309128;[0.016955199999756587, 0.016344300000127987, 0.016643999999814696, 0.017247900000256777];94;3;0.05023620000019946;blank.tiff;mask.tiff;-0.14;a;['left'];0.5887730999997984;0;1.233;3.6561390000001666;48
308;S_02;A;pre;4;59.82886551309128;[0.01756710000017847, 0.01605810000000929, 0.017093500000100903, 0.016458499999771448];17;3;0.04961009999988164;2.tif;mask.tiff;0.14;left;['left'];0.14450010000018665;1;0.754;2.7439417000000503;51
309;S_02;A;pre;4;59.82886551309128;[0.016139300000304502, 0.016592799999671115, 0.01679070000000138, 0.01692220000040834];39;5;0.05030570000008083;8.tif;mask.tiff;0.14;right;['right'];0.3846286999996664;0;1.261;3.4840157000003273;89
310;S_02;A;pre;4;59.82886551309128;[0.016552199999750883, 0.016568999999890366, 0.016756200000145327, 0.016562100000101054];66;4;0.04988730000013675;3.tif;mask.tiff;-0.14;left;['left'];0.3052223999998205;1;0.817;2.955130100000133;68
311;S_02;A;pre;4;59.82886551309128;[0.01656710000042949, 0.0165314999999282, 0.016901799999686773, 0.016825300000164134];73;5;0.05025859999977911;2.tif;mask.tiff;0.14;left;['left'];0.22857969999995476;1;0.836;2.894946400000208;83
312;S_02;A;pre;4;59.82886551309128;[0.016632400000162306, 0.017077299999982642, 0.0158793999999034, 0.016690299999936542];62;3;0.04964699999982258;8.tif;mask.tiff;-0.14;right;['right'];1.0721174999998766;0;1.292;4.203696700000364;56
313;S_02;A;pre;4;59.82886551309128;[0.016890200000034383, 0.01707059999989724, 0.016347100000075443, 0.01710929999990185];38;5;0.05052699999987453;8.tif;mask.tiff;-0.14;right;['left'];0.32966869999972914;0;0.931;3.0958402999999635;88
314;S_02;A;pre;4;59.82886551309128;[0.017918100000315462, 0.015663299999687297, 0.016164100000423787, 0.017520199999580655];8;2;0.04934759999969174;2.tif;mask.tiff;-0.14;left;['right'];1.3805750000001353;0;1.411;4.630569799999648;34
315;S_02;A;pre;4;59.82886551309128;[0.016973999999663647, 0.016345600000022387, 0.016451899999992747, 0.0169556000000739];80;1;0.049753100000089034;blank.tiff;mask.tiff;-0.14;a;['left'];0.5896466000003784;0;1.016;3.4395677999996224;16
316;S_02;A;pre;4;59.82886551309128;[0.01685059999999794, 0.01676099999986036, 0.016302300000006653, 0.019879300000411604];60;3;0.05294260000027862;7.tif;mask.tiff;-0.14;right;['right'];0.502249699999993;1;0.993;3.335601300000235;54
317;S_02;A;pre;4;59.82886551309128;[0.017413000000033207, 0.016507799999999406, 0.016161299999566836, 0.017323100000339764];6;1;0.049992199999906006;8.tif;mask.tiff;-0.14;right;['right'];0.1343071000001146;1;1.125;3.1010886999997638;24
318;S_02;A;pre;4;59.82886551309128;[0.016851200000019162, 0.016342700000222976, 0.01634620000004361, 0.017975399999613728];3;1;0.05066429999988031;3.tif;mask.tiff;0.14;left;['left'];0.28176280000025145;1;0.799;2.9148629999999685;21
319;S_02;A;pre;4;59.82886551309128;[0.017492200000106095, 0.016046499999902153, 0.016183899999759888, 0.017035800000030576];10;2;0.04926619999969262;3.tif;mask.tiff;-0.14;left;['left'];0.9466555000003609;0;0.876;3.6639414999999644;36
320;S_02;A;pre;4;59.82886551309128;[0.015930899999602843, 0.01683150000008027, 0.017211200000019744, 0.01612139999997453];92;2;0.05016410000007454;blank.tiff;mask.tiff;-0.14;a;['left'];0.4894320000003063;0;4.51;6.840272399999776;32
321;S_02;A;pre;4;59.82886551309128;[0.01732789999960005, 0.01662930000020424, 0.016843100000187405, 0.01702419999992344];21;3;0.050496600000315084;7.tif;mask.tiff;0.14;right;['left'];0.3124184999996942;0;2.557;4.712413599999763;55
322;S_02;A;pre;4;59.82886551309128;[0.016754199999923003, 0.015853700000207027, 0.016980899999907706, 0.01653919999989739];18;3;0.049373800000012125;3.tif;mask.tiff;-0.14;left;['left'];0.7801066999995783;0;1.842;4.4630849999998645;52
323;S_02;A;pre;4;59.82886551309128;[0.01729059999979654, 0.01640850000012506, 0.016342400000212365, 0.01754080000000613];16;3;0.05029170000034355;2.tif;mask.tiff;-0.14;left;['left'];0.7573207999998885;0;0.797;3.389858600000025;50
324;S_02;A;pre;4;59.82886551309128;[0.016684600000189675, 0.016637899999750516, 0.017084800000247924, 0.016491099999711878];65;4;0.05021379999971032;2.tif;mask.tiff;0.14;left;['left'];0.290193299999828;0;2.362;4.489679199999955;67
325;S_02;A;pre;4;59.82886551309128;[0.016834300000027724, 0.016908799999782786, 0.016285200000311306, 0.01649889999998777];54;2;0.04969290000008186;8.tif;mask.tiff;-0.14;right;['right'];0.647147700000005;0;1.172;3.6641733000001295;40
326;S_02;A;pre;4;59.82886551309128;[0.016712500000267028, 0.01750450000008641, 0.015915299999960553, 0.016619499999706022];45;1;0.050039299999752984;7.tif;mask.tiff;0.14;right;['left'];0.84116320000021;0;4.898;7.573696599999948;23
327;S_02;A;pre;4;59.82886551309128;[0.017189700000017183, 0.01695900000004258, 0.016322800000125426, 0.01656120000006922];87;4;0.049843000000237225;blank.tiff;mask.tiff;0.14;a;['right'];0.5310371999999006;0;1.131;3.498180499999762;65
328;S_02;A;pre;4;59.82886551309128;[0.01682920000030208, 0.01717770000004748, 0.01677109999991444, 0.016314299999976356];33;5;0.05026309999993828;2.tif;mask.tiff;0.14;left;['left'];0.1629029000000628;1;0.877;2.8807489000000714;83
329;S_02;A;pre;4;59.82886551309128;[0.016785300000265124, 0.016546899999866582, 0.016882100000202627, 0.017227599999841914];0;1;0.05065659999991112;2.tif;mask.tiff;-0.14;left;['left'];0.13010949999988952;1;0.697;2.663963800000147;18
330;S_02;A;pre;4;59.82886551309128;[0.016536999999971158, 0.01680659999965428, 0.016920200000186014, 0.01667300000008254];12;2;0.050399799999922834;7.tif;mask.tiff;-0.14;right;['right'];0.7936706999998933;0;0.862;3.4934015000003455;38
331;S_02;A;pre;4;59.82886551309128;[0.015716899999915768, 0.016541700000288984, 0.016596199999639794, 0.01695910000034928];50;2;0.05009700000027806;3.tif;mask.tiff;-0.14;left;['left'];0.2697691000003033;0;1.125;3.236166499999854;36
332;S_02;A;pre;4;59.82886551309128;[0.01610000000027867, 0.01637479999999414, 0.01678119999996852, 0.016905899999983376];15;2;0.050061899999946036;8.tif;mask.tiff;0.14;right;['right'];0.7545649000003323;0;2.464;5.053598399999828;41
333;S_02;A;pre;4;59.82886551309128;[0.017822299999807, 0.01632819999986168, 0.015667600000142556, 0.01653390000001309];43;1;0.04852970000001733;3.tif;mask.tiff;0.14;left;['left'];2.2800852000000305;1;1.504;5.629343900000094;21
334;S_02;A;pre;4;59.82886551309128;[0.016043600000102742, 0.016953800000010233, 0.01610579999987749, 0.016896099999939906];36;5;0.04995569999982763;7.tif;mask.tiff;-0.14;right;['right'];0.10274809999964418;1;0.726;2.670052399999804;86
335;S_02;A;pre;4;59.82886551309128;[0.016780299999936688, 0.01715199999989636, 0.015475500000320608, 0.017207999999754975];78;5;0.049835499999971944;8.tif;mask.tiff;-0.14;right;['right'];0.13258530000030078;1;2.378;4.349386700000196;88
336;S_02;A;pre;4;59.82886551309128;[0.01715620000004492, 0.016794099999970058, 0.01632450000033714, 0.016565499999614985];28;4;0.04968409999992218;7.tif;mask.tiff;-0.14;right;['left'];0.13183930000013788;1;0.926;2.8983605999997053;70
337;S_02;A;pre;4;59.82886551309128;[0.01642360000005283, 0.016005699999823264, 0.017143600000053993, 0.016442199999801232];48;2;0.04959149999967849;2.tif;mask.tiff;-0.14;left;['right'];1.0730508999999984;0;0.714;3.6223995000000286;34
338;S_02;A;pre;4;59.82886551309128;[0.016516600000159087, 0.016451599999982136, 0.017101499999625958, 0.01611170000023776];44;1;0.049664799999845854;7.tif;mask.tiff;-0.14;right;['left'];0.675351800000044;0;9.459;11.976143100000172;22
339;S_02;A;pre;4;59.82886551309128;[0.01701299999967887, 0.01671950000036304, 0.01673639999989973, 0.01649489999999787];31;4;0.04995080000026064;8.tif;mask.tiff;0.14;right;['right'];0.7088668000001235;0;7.704;10.259546199999932;73
340;S_02;A;pre;4;59.82886551309128;[0.017042099999798666, 0.016418200000316574, 0.017083499999898777, 0.016667899999902147];93;2;0.0501696000001175;blank.tiff;mask.tiff;0.14;a;['right'];3.4086546999997154;0;1.213;6.458063399999901;33
341;S_02;A;pre;4;59.82886551309128;[0.017838299999766605, 0.015906900000118185, 0.016483299999890733, 0.016550300000290008];11;2;0.048940500000298925;3.tif;mask.tiff;0.14;left;['left'];0.329491599999983;1;1.395;3.5613822000000255;37
342;S_02;A;pre;4;59.82886551309128;[0.016318299999966257, 0.016826200000195968, 0.017644099999870377, 0.015872399999807385];40;1;0.05034269999987373;2.tif;mask.tiff;-0.14;left;['left'];0.17531249999956344;1;2.765;4.771744800000306;18
343;S_02;A;pre;4;59.82886551309128;[0.016570100000080856, 0.017439199999898847, 0.015887100000327337, 0.0172139999999672];34;5;0.05054030000019338;3.tif;mask.tiff;-0.14;left;['left'];0.4080423000000337;0;1.025;3.274054200000137;84
344;S_02;A;pre;4;59.82886551309128;[0.016543100000035338, 0.01666979999981777, 0.017456699999911507, 0.016161400000328285];35;5;0.05028790000005756;3.tif;mask.tiff;0.14;left;['right'];0.414931599999818;0;1.11;3.364499799999976;85
345;S_02;A;pre;4;59.82886551309128;[0.017174099999920145, 0.01643100000001141, 0.016717900000003283, 0.016305900000133988];70;4;0.04945480000014868;8.tif;mask.tiff;-0.14;right;['right'];0.7661944000001313;0;1.958;4.565412399999786;72
346;S_02;A;pre;4;59.82886551309128;[0.01622899999983929, 0.01637410000012096, 0.016195000000152504, 0.017072399999960908];88;5;0.04964150000023437;blank.tiff;mask.tiff;-0.14;a;['right'];0.5467171999998754;0;0.913;3.296728599999824;80
347;S_02;A;pre;4;59.82886551309128;[0.016185999999834166, 0.01750450000008641, 0.01623380000000907, 0.016852400000061607];58;3;0.050590700000157085;3.tif;mask.tiff;-0.14;left;['right'];0.1895062000003236;1;0.816;2.838625299999876;52
348;S_02;A;pre;4;59.82886551309128;[0.01658659999975498, 0.01675389999991239, 0.01631100000031438, 0.017847299999630195];77;5;0.050912199999856966;7.tif;mask.tiff;0.14;right;['right'];0.09487340000032418;1;0.758;2.695516399999633;87
349;S_02;A;pre;4;59.82886551309128;[0.01700799999980518, 0.016259999999874708, 0.017280200000186596, 0.017012199999953737];4;1;0.05055240000001504;7.tif;mask.tiff;-0.14;right;['right'];0.3105248000001666;0;0.751;2.893998399999873;22
350;S_02;A;pre;4;59.82886551309128;[0.016901099999813596, 0.016225800000029267, 0.017528600000332517, 0.015986599999905593];79;5;0.04974100000026738;8.tif;mask.tiff;0.14;right;['left'];0.6127580000002126;0;0.939;3.395950999999968;89
351;S_02;A;pre;4;59.82886551309128;[0.016348499999821797, 0.017367299999932584, 0.016344000000117376, 0.016728000000057364];42;1;0.05043930000010732;3.tif;mask.tiff;-0.14;left;['right'];0.8664462000001549;0;0.677;3.3827891999999338;20
352;S_02;A;pre;4;59.82886551309128;[0.016371300000173505, 0.017114499999934196, 0.016562899999826186, 0.017143600000053993];47;1;0.050820999999814376;8.tif;mask.tiff;0.14;right;['right'];0.33747119999998176;1;1.376;3.55401669999992;25
353;S_02;A;pre;4;59.82886551309128;[0.015984499999831314, 0.017549700000017765, 0.016291899999487214, 0.016389100000196777];2;1;0.050230699999701756;3.tif;mask.tiff;-0.14;left;['left'];0.6531907999997202;0;1.819;4.30227879999984;20
354;S_02;A;pre;4;59.82886551309128;[0.01745669999945676, 0.015834100000574836, 0.01739839999936521, 0.016316199999891978];9;2;0.049548699999832024;2.tif;mask.tiff;0.14;left;['left'];0.5350238999999419;1;1.239;3.6185926000007385;35
355;S_02;A;pre;4;59.82886551309128;[0.016896999999516993, 0.016067800000200805, 0.017132199999650766, 0.01723500000025524];95;3;0.05043500000010681;blank.tiff;mask.tiff;0.14;a;['right'];2.0881179999996675;0;1.057;4.988692899999478;49
356;S_02;A;pre;4;59.82886551309128;[0.016740699999900244, 0.016665500000272004, 0.016285599999719125, 0.016385700000682846];41;1;0.049336800000673975;2.tif;mask.tiff;0.14;left;['left'];0.1858714999998483;1;0.698;2.7185264999998253;19
357;S_02;A;pre;4;59.82886551309128;[0.016188099999453698, 0.017344300000331714, 0.016410600000199338, 0.01650549999976647];96;4;0.05026040000029752;blank.tiff;mask.tiff;-0.14;a;['left'];0.18919479999931355;0;0.993;3.0222893000000113;64
358;S_02;A;pre;4;59.82886551309128;[0.016945500000474567, 0.016630399999485235, 0.01661060000060388, 0.01645029999963299];1;1;0.049691299999722105;2.tif;mask.tiff;0.14;left;['left'];0.3130575000004683;1;0.854;3.0128052000000025;19
359;S_02;A;pre;4;59.82886551309128;[0.01650049999989278, 0.017065299999558192, 0.016312600000674138, 0.01795369999945251];97;4;0.05133159999968484;blank.tiff;mask.tiff;0.14;a;['right'];0.6457385000003342;0;0.802;3.279817899999216;65
360;S_02;A;pre;4;59.82886551309128;[0.017247399999178015, 0.016622200000711018, 0.01568909999969037, 0.01780049999979383];25;4;0.05011180000019522;2.tif;mask.tiff;0.14;left;['left'];0.15701910000007047;1;0.782;2.772668500000691;67
361;S_02;A;pre;4;59.82886551309128;[0.016851600000336475, 0.016106199999740056, 0.016990699999951175, 0.016547799999898416];7;1;0.04964469999958965;8.tif;mask.tiff;0.14;right;['right'];0.28354049999961717;1;0.671;3.384257400000024;25
362;S_02;A;pre;4;59.82886551309128;[0.01747129999967001, 0.01633289999972476, 0.015982400000211783, 0.017858199999864155];46;1;0.0501734999998007;8.tif;mask.tiff;-0.14;right;['right'];0.8856210000003557;0;1.478;4.203031699999883;24
363;S_02;A;pre;4;59.82886551309128;[0.01617050000004383, 0.01656109999930777, 0.017436300000554183, 0.016453199999887147];22;3;0.0504505999997491;8.tif;mask.tiff;-0.14;right;['left'];0.531152700000348;0;0.965;3.3319652999998652;56
364;S_02;A;pre;4;59.82886551309128;[0.01666560000012396, 0.01674280000042927, 0.016806300000098418, 0.016622599999209342];37;5;0.05017169999973703;7.tif;mask.tiff;0.14;right;['right'];3.9825276000001395;0;0.843;6.665228299999399;87
365;S_02;A;pre;4;59.82886551309128;[0.017047899999852234, 0.016672000000653497, 0.016262799999822164, 0.016681799999787472];67;4;0.049616600000263134;3.tif;mask.tiff;0.14;left;['left'];0.222279300000082;1;1.014;3.0721528000003673;69
366;S_02;A;pre;4;59.82886551309128;[0.01741200000014942, 0.015374900000097114, 0.0170124999995096, 0.016818400000374822];57;3;0.049205799999981537;2.tif;mask.tiff;0.14;left;['right'];0.9727275000004738;0;11.434;14.239387200000237;51
367;S_02;A;pre;4;59.82886551309128;[0.016644499999529216, 0.01632340000014665, 0.016429400000561145, 0.016400799999246374];83;2;0.04915359999995417;blank.tiff;mask.tiff;0.14;a;['right'];0.4839240000001155;0;1.082;3.400543099999595;33
368;S_02;A;pre;4;59.82886551309128;[0.017032100000506034, 0.016572499999711, 0.016639399999803572, 0.016500700000506185];75;5;0.04971260000002076;3.tif;mask.tiff;0.14;left;['right'];0.723468000000139;0;1.556;4.123521999999866;85
369;S_02;A;pre;4;59.82886551309128;[0.016433300000244344, 0.016435599999567785, 0.016947000000072876, 0.016218400000070687];55;2;0.04960099999971135;8.tif;mask.tiff;0.14;right;['left'];0.20640929999990476;1;4.193;6.240282599999773;41
370;S_02;A;pre;4;59.82886551309128;[0.016864399999576563, 0.016408700000283716, 0.016721699999834527, 0.01701580000008107];81;1;0.050146200000199315;blank.tiff;mask.tiff;0.14;a;['right'];0.44829849999950966;0;1.172;3.4643736000007266;17
371;S_02;A;pre;4;59.82886551309128;[0.016970499999843014, 0.01673579999987851, 0.01699060000009922, 0.020557599999847298];14;2;0.05428399999982503;8.tif;mask.tiff;-0.14;right;['right'];0.14631290000033914;1;0.926;2.912655000000086;40
372;S_02;A;pre;4;59.82886551309128;[0.017084400000385358, 0.016465599999719416, 0.016417599999840604, 0.017193800000313786];89;5;0.050076999999873806;blank.tiff;mask.tiff;0.14;a;['left'];0.9695981999993819;0;0.846;3.653294700000515;81
373;S_02;A;pre;4;59.82886551309128;[0.016994599999634374, 0.01704410000002099, 0.015926899999612942, 0.016436100000646547];29;4;0.04940710000028048;7.tif;mask.tiff;0.14;right;['right'];0.5282640000004903;0;0.912;3.27835529999993;71
374;S_02;A;pre;4;59.82886551309128;[0.01724629999989702, 0.016277200000331504, 0.016473599999699218, 0.01722760000029666];19;3;0.04997840000032738;3.tif;mask.tiff;0.14;left;['left'];0.04087919999983569;1;0.861;2.7403773999994883;53
375;S_02;A;pre;4;59.82886551309128;[0.016405999999733467, 0.01773990000037884, 0.016080200000033074, 0.016268599999420985];86;4;0.0500886999998329;blank.tiff;mask.tiff;-0.14;a;['left'];3.166065599999456;0;1.823;6.832632700000431;64
376;S_02;A;pre;4;59.82886551309128;[0.01677269999981945, 0.01669919999949343, 0.016546500000004016, 0.016846800000166695];30;4;0.05009249999966414;8.tif;mask.tiff;-0.14;right;['left'];0.47900339999978314;0;0.824;3.146389100000306;72
377;S_02;A;pre;4;59.82886551309128;[0.021451100000376755, 0.012211799999931827, 0.016367499999432766, 0.01719610000054672];51;2;0.045775399999911315;3.tif;mask.tiff;0.14;left;['right'];0.392660600000454;0;0.913;3.1424102999999377;37
378;S_02;A;pre;4;59.82886551309128;[0.017170599999190017, 0.01710460000049352, 0.016490199999680044, 0.016762899999775982];23;3;0.050357699999949546;8.tif;mask.tiff;0.14;right;['right'];0.3019752999998673;1;0.879;3.0182138999998642;57
379;S_02;A;pre;4;59.82886551309128;[0.016742199999498553, 0.01648380000006, 0.017200600000251143, 0.016352800000277057];82;2;0.0500372000005882;blank.tiff;mask.tiff;-0.14;a;['right'];0.3715284999998403;0;1.147;3.3542026000004626;32
380;S_02;A;pre;4;59.82886551309128;[0.0168217000000368, 0.01636899999994057, 0.016988699999274104, 0.017562500000167347];24;4;0.05092019999938202;2.tif;mask.tiff;-0.14;left;['right'];0.2701965000005657;0;0.843;2.9534444999999323;66
381;S_02;A;pre;4;59.82886551309128;[0.016849000000547676, 0.0167089999995369, 0.016663899999912246, 0.016515199999957986];99;5;0.04988809999940713;blank.tiff;mask.tiff;0.14;a;['left'];0.2925543999999718;0;0.924;3.059848800000509;81
382;S_02;A;pre;4;59.82886551309128;[0.016084800000498944, 0.01686619999964023, 0.01692090000051394, 0.016853399999490648];52;2;0.05064049999964482;7.tif;mask.tiff;-0.14;right;['right'];0.6523106000004191;0;0.894;3.386185899999873;38
383;S_02;A;pre;4;59.82886551309128;[0.016878999999789812, 0.016620000000330037, 0.016444099999716855, 0.017077900000003865];90;1;0.05014200000005076;blank.tiff;mask.tiff;-0.14;a;['left'];0.3839856000004147;0;1.479;3.7010329000004276;16
384;S_02;A;pre;4;59.82886551309128;[0.017124400000284368, 0.016277599999739323, 0.016901599999982864, 0.015810799999599112];61;3;0.0489899999993213;7.tif;mask.tiff;0.14;right;['left'];0.3711136000001716;0;0.753;2.9705826999997953;55
385;S_02;A;pre;4;59.82886551309128;[0.016477099999974598, 0.016316399999595887, 0.01677990000007412, 0.016597099999671627];5;1;0.049693399999341636;7.tif;mask.tiff;0.14;right;['right'];0.6925557000004119;1;0.775;3.3096568000000843;23
386;S_02;A;pre;4;59.82886551309128;[0.016720300000088173, 0.01640259999931004, 0.016882300000361283, 0.016808899999887217];76;5;0.05009379999955854;7.tif;mask.tiff;-0.14;right;['right'];1.0776972000003298;0;1.123;4.044469200000094;86
387;S_02;A;pre;4;59.82886551309128;[0.01659410000047501, 0.0162651000000551, 0.01668459999928018, 0.01689130000067962];59;3;0.0498410000000149;3.tif;mask.tiff;0.14;left;['right'];0.42152030000033847;0;0.745;3.0039128999997047;53
388;S_02;A;pre;4;59.82886551309128;[0.017481199999565433, 0.01588140000058047, 0.017336599999907776, 0.01673769999979413];74;5;0.04995570000028238;3.tif;mask.tiff;-0.14;left;['left'];0.8096464000000196;0;1.49;4.126401000000442;84
389;S_02;A;pre;4;59.82886551309128;[0.016973499999949127, 0.017554099999870232, 0.01558500000010099, 0.017377400000441412];53;2;0.050516500000412634;7.tif;mask.tiff;0.14;right;['right'];0.25489050000032876;1;1.914;4.004090800000085;39
390;S_02;A;pre;4;59.82886551309128;[0.016918899999836867, 0.016721500000130618, 0.016180299999177805, 0.017495400000370864];13;2;0.05039719999967929;7.tif;mask.tiff;0.14;right;['left'];0.7467377999992095;0;1.445;4.0302818999998635;39
391;S_02;A;pre;4;59.82886551309128;[0.01624640000045474, 0.016925699999774224, 0.016196600000512262, 0.016677599999638915];56;3;0.0497998999999254;2.tif;mask.tiff;-0.14;left;['right'];0.7421813999999358;0;1.781;4.358889299999646;50
392;S_02;A;pre;4;59.82886551309128;[0.016416499999650114, 0.016928099999859114, 0.016913299999941955, 0.01656100000036531];27;4;0.05040240000016638;3.tif;mask.tiff;0.14;left;['left'];0.6192074000000503;1;0.961;3.418079900000521;69
393;S_02;A;pre;4;59.82886551309128;[0.016671400000632275, 0.016322499999660067, 0.01702500000010332, 0.016908099999454862];91;1;0.05025559999921825;blank.tiff;mask.tiff;0.14;a;['right'];4.361976800000775;0;3.208;9.412005000000136;17
394;S_02;A;pre;4;59.82886551309128;[0.01740559999961988, 0.016440399999737565, 0.01687000000038097, 0.01616909999938798];49;2;0.049479499999506515;2.tif;mask.tiff;0.14;left;['left'];1.343507900000077;1;1.143;4.326893800000107;35
395;S_02;A;pre;4;59.82886551309128;[0.016995400000269, 0.016739700000471203, 0.01683379999940371, 0.016348300000572635];72;5;0.04992180000044755;2.tif;mask.tiff;-0.14;left;['right'];4.350199600000451;0;0.916;7.100203500000134;82
396;S_02;A;pre;4;59.82886551309128;[0.01665969999976369, 0.016895699999622593, 0.01654540000072302, 0.016432699999313627];63;3;0.04987379999965924;8.tif;mask.tiff;0.14;right;['right'];2.5771786000004795;1;2.161;6.577304199999162;57
397;S_02;A;pre;4;59.82886551309128;[0.01705339999989519, 0.016399600000113423, 0.01670300000023417, 0.01651510000010603];71;4;0.049617700000453624;8.tif;mask.tiff;0.14;right;['right'];0.2004906000001938;1;1.107;3.1499915000003966;73
398;S_02;A;pre;4;59.82886551309128;[0.01665709999997489, 0.016574999999647844, 0.017374300000483345, 0.015768799999932526];26;4;0.049718100000063714;3.tif;mask.tiff;-0.14;left;['left'];1.387877500000286;1;0.911;4.137017400000332;68
399;S_02;A;pre;4;59.82886551309128;[0.0169093000004068, 0.01616550000017014, 0.016771899999184825, 0.016697600000043167];32;5;0.04963499999939813;2.tif;mask.tiff;-0.14;left;['left'];0.8620871000002808;0;0.801;3.495090800000071;82
