;subject;stim;session;block;frame_rate;frame_int;trial_nb;SOA;real_SOA;target;mask;position;cor_ans;obj_rating;obj_RT;subj_rating;subj_RT;trial_duration;trigger
0;S04;A;pre;1;59.98566342900673;[0.014725199987879023, 0.01652010000543669, 0.016393099998822436, 0.016735400015022606];61;3;0.04964860001928173;7.tif;mask.tiff;0.14;right;['right'];0.8597227999998722;1;2.132;4.845342500018887;55
1;S04;A;pre;1;59.98566342900673;[0.0165151999972295, 0.017273000004934147, 0.016268899984424934, 0.016815300012240186];11;2;0.05035720000159927;3.tif;mask.tiff;0.14;left;['right'];1.3289452999888454;0;2.066;5.2293376000016;37
2;S04;A;pre;1;59.98566342900673;[0.017066199972759932, 0.016436100006103516, 0.016441800020402297, 0.016840399999637157];29;4;0.04971830002614297;7.tif;mask.tiff;0.14;right;['right'];0.8302259999909438;1;0.744;3.413661600003252;71
3;S04;A;pre;1;59.98566342900673;[0.014206099993316457, 0.0163227999873925, 0.017095300019718707, 0.016426199988927692];3;1;0.0498442999960389;3.tif;mask.tiff;0.14;left;['left'];0.2936559999943711;1;2.009;4.143426399998134;21
4;S04;A;pre;1;59.98566342900673;[0.015326099994126707, 0.01645600001211278, 0.0167760000040289, 0.01641889999154955];28;4;0.049650900007691234;7.tif;mask.tiff;-0.14;right;['right'];0.30202319999807514;0;0.928;3.06828070001211;70
5;S04;A;pre;1;59.98566342900673;[0.017139800009317696, 0.0166548999841325, 0.016262800025288016, 0.016840500000398606];8;2;0.04975820000981912;2.tif;mask.tiff;-0.14;left;['left'];0.24252450000494719;1;0.752;2.8420415000000503;34
6;S04;A;pre;1;59.98566342900673;[0.01624730002367869, 0.01660159998573363, 0.0168159999884665, 0.01672740001231432];97;4;0.05014499998651445;blank.tiff;mask.tiff;0.14;a;['right'];0.15811270000995137;0;0.749;2.7415867000236176;65
7;S04;A;pre;1;59.98566342900673;[0.013585499982582405, 0.016781200014520437, 0.01635970000643283, 0.01767679999466054];15;2;0.05081770001561381;8.tif;mask.tiff;0.14;right;['right'];0.5628024000034202;1;1.724;4.1289046999881975;41
8;S04;A;pre;1;59.98566342900673;[0.017233099992154166, 0.016193300019949675, 0.01700130000244826, 0.016372299985960126];52;2;0.04956690000835806;7.tif;mask.tiff;-0.14;right;['right'];0.9363922000047751;0;0.7;3.469246900000144;38
9;S04;A;pre;1;59.98566342900673;[0.01673900001333095, 0.016739999991841614, 0.01701630000025034, 0.016507699998328462];86;4;0.050263999990420416;blank.tiff;mask.tiff;-0.14;a;['left'];1.5790076999983285;0;4.22;7.645592100016074;64
10;S04;A;pre;1;59.98566342900673;[0.0169095000019297, 0.016461099992739037, 0.016648500022711232, 0.01704439998138696];7;1;0.05015399999683723;8.tif;mask.tiff;0.14;right;['right'];0.16409900001599453;1;0.976;2.980842199991457;25
11;S04;A;pre;1;59.98566342900673;[0.0170059000083711, 0.01653769999393262, 0.016389900003559887, 0.016876399982720613];56;3;0.04980399998021312;2.tif;mask.tiff;-0.14;left;['left'];0.11232650000602007;1;0.752;2.695363600010751;50
12;S04;A;pre;1;59.98566342900673;[0.016920499998377636, 0.016947199997957796, 0.017094099981477484, 0.016760300000896677];32;5;0.05080159998033196;2.tif;mask.tiff;-0.14;left;['left'];0.10474920002161525;1;0.891;2.8382071999949403;82
13;S04;A;pre;1;59.98566342900673;[0.01693179999710992, 0.01641739998012781, 0.017210999998496845, 0.01603240001713857];93;2;0.04966079999576323;blank.tiff;mask.tiff;0.14;a;['left'];0.11992560001090169;0;0.73;2.6870315999840386;33
14;S04;A;pre;1;59.98566342900673;[0.016957499989075586, 0.016300000017508864, 0.016726200003176928, 0.017123799974797294];2;1;0.050149999995483086;3.tif;mask.tiff;-0.14;left;['left'];0.1928704000019934;1;0.651;2.693092000001343;20
15;S04;A;pre;1;59.98566342900673;[0.016742999985581264, 0.01654970002709888, 0.016869099985342473, 0.01664129999699071];6;1;0.05006010000943206;8.tif;mask.tiff;-0.14;right;['right'];0.13305939998826943;1;0.911;2.900372600008268;24
16;S04;A;pre;1;59.98566342900673;[0.017271499993512407, 0.01661150000290945, 0.016035000007832423, 0.017151699983514845];30;4;0.04979819999425672;8.tif;mask.tiff;-0.14;right;['right'];0.12852150000981055;0;0.784;2.7447757000045385;72
17;S04;A;pre;1;59.98566342900673;[0.01646959999925457, 0.01660750000155531, 0.01658779999706894, 0.01717020000796765];81;1;0.0503655000065919;blank.tiff;mask.tiff;0.14;a;['left'];0.10760220000520349;0;0.857;2.807295400009025;17
18;S04;A;pre;1;59.98566342900673;[0.016805099992780015, 0.016742900013923645, 0.01664279997930862, 0.017052900017006323];84;3;0.05043860001023859;blank.tiff;mask.tiff;-0.14;a;['right'];0.07596159999957308;0;0.887;2.8093190000217874;48
19;S04;A;pre;1;59.98566342900673;[0.01676109997788444, 0.016685400012647733, 0.01699559998814948, 0.016493800008902326];85;3;0.05017480000969954;blank.tiff;mask.tiff;0.14;a;['left'];0.08420569999725558;0;0.756;2.6841277000203263;49
20;S04;A;pre;1;59.98566342900673;[0.01459239999530837, 0.016659800021443516, 0.015981299977283925, 0.017006400012178347];53;2;0.04964750001090579;7.tif;mask.tiff;0.14;right;['right'];0.12103449998539872;1;0.723;2.704349599982379;39
21;S04;A;pre;1;59.98566342900673;[0.017120999982580543, 0.016576499998336658, 0.01689200001419522, 0.016228499996941537];89;5;0.04969700000947341;blank.tiff;mask.tiff;0.14;a;['left'];0.09854289999930188;0;0.929;2.8651802999957;81
22;S04;A;pre;1;59.98566342900673;[0.016132199991261587, 0.016199100005906075, 0.01637919998029247, 0.016710399999283254];35;5;0.0492886999854818;3.tif;mask.tiff;0.14;left;['left'];0.4455004000046756;1;0.971;3.261452000006102;85
23;S04;A;pre;1;59.98566342900673;[0.01743700000224635, 0.01691379997646436, 0.016359000001102686, 0.016911400016397238];16;3;0.050184199993964285;2.tif;mask.tiff;-0.14;left;['left'];0.5229649000102654;1;2.581;4.973315200011712;50
24;S04;A;pre;1;59.98566342900673;[0.01645769999595359, 0.01635980000719428, 0.016793000017059967, 0.017041899991454557];60;3;0.050194700015708804;7.tif;mask.tiff;-0.14;right;['right'];0.09231770000769757;1;3.52;5.458618200005731;54
25;S04;A;pre;1;59.98566342900673;[0.01679999998304993, 0.016681900015100837, 0.016942499991273507, 0.016083800001069903];48;2;0.04970820000744425;2.tif;mask.tiff;-0.14;left;['left'];0.08609640001668595;1;1.043;2.969473100005416;34
26;S04;A;pre;1;59.98566342900673;[0.013467499986290932, 0.017224900017026812, 0.01645179998013191, 0.016560400021262467];95;3;0.05023710001842119;blank.tiff;mask.tiff;0.14;a;['right'];0.1315728999907151;0;0.912;2.931813500006683;49
27;S04;A;pre;1;59.98566342900673;[0.01536140000098385, 0.0171169999812264, 0.015972900000633672, 0.01711860002251342];10;2;0.05020850000437349;3.tif;mask.tiff;-0.14;left;['left'];0.13169310000375845;1;0.763;2.7311198000097647;36
28;S04;A;pre;1;59.98566342900673;[0.01624009999795817, 0.017351500020595267, 0.016319499991368502, 0.016858299990417436];25;4;0.050529300002381206;2.tif;mask.tiff;0.14;left;['right'];0.14326920002349652;1;0.718;2.6931306999758817;67
29;S04;A;pre;1;59.98566342900673;[0.016742399981012568, 0.016859499999554828, 0.016218100005062297, 0.016877799993380904];26;4;0.04995539999799803;3.tif;mask.tiff;-0.14;left;['left'];0.13572449999628589;1;1.279;3.253055899986066;68
30;S04;A;pre;1;59.98566342900673;[0.01596889999927953, 0.016873299988219514, 0.016619800007902086, 0.01688710000598803];54;2;0.05038020000210963;8.tif;mask.tiff;-0.14;right;['right'];0.15720689998124726;1;0.768;2.772978199995123;40
31;S04;A;pre;1;59.98566342900673;[0.016449899994768202, 0.01693610000074841, 0.016427700000349432, 0.017140300013124943];42;1;0.050504100014222786;3.tif;mask.tiff;-0.14;left;['left'];0.517937799973879;1;0.783;3.1508315000100993;20
32;S04;A;pre;1;59.98566342900673;[0.016004000004613772, 0.015686900005675852, 0.01721349998842925, 0.016463100007968023];24;4;0.049363500002073124;2.tif;mask.tiff;-0.14;left;['left'];0.21422249998431653;0;0.951;2.9979320999991614;66
33;S04;A;pre;1;59.98566342900673;[0.016508999979123473, 0.016370900004403666, 0.01684140000725165, 0.016556299990043044];14;2;0.04976860000169836;8.tif;mask.tiff;-0.14;right;['right'];1.1618694000062533;1;0.86;3.862660999991931;40
34;S04;A;pre;1;59.98566342900673;[0.01673050000681542, 0.017055399977834895, 0.01613760000327602, 0.016793100017821416];34;5;0.04998609999893233;3.tif;mask.tiff;-0.14;left;['left'];0.4120021999988239;1;0.83;3.078689099987969;84
35;S04;A;pre;1;59.98566342900673;[0.01687700001639314, 0.016422599990619346, 0.016926600015722215, 0.016806999978143722];45;1;0.050156199984485283;7.tif;mask.tiff;0.14;right;['right'];0.268666599993594;1;2.016;4.118507999985013;23
36;S04;A;pre;1;59.98566342900673;[0.016620100010186434, 0.016874399996595457, 0.01696609999635257, 0.015724900003988296];68;4;0.04956539999693632;7.tif;mask.tiff;-0.14;right;['right'];0.16107650002231821;1;0.734;2.786073099996429;70
37;S04;A;pre;1;59.98566342900673;[0.014844499994069338, 0.016830200009280816, 0.016184099979000166, 0.017164100019726902];88;5;0.050178400008007884;blank.tiff;mask.tiff;-0.14;a;['left'];0.2655271000112407;0;1.063;3.165057500009425;80
38;S04;A;pre;1;59.98566342900673;[0.016723499982617795, 0.016852500004461035, 0.01605770000605844, 0.01760570000624284];12;2;0.050515900016762316;7.tif;mask.tiff;-0.14;right;['right'];0.11618019998422824;1;0.862;2.8159554000012577;38
39;S04;A;pre;1;59.98566342900673;[0.016602300020167604, 0.01645159997860901, 0.016915000014705583, 0.016793399991001934];13;2;0.05015999998431653;7.tif;mask.tiff;0.14;right;['right'];0.41385369998170063;1;2.482;4.729979099996854;39
40;S04;A;pre;1;59.98566342900673;[0.01654370001051575, 0.0167508999875281, 0.01651380001567304, 0.016417099977843463];49;2;0.049681799981044605;2.tif;mask.tiff;0.14;left;['left'];0.1538670000154525;1;0.673;2.670574799994938;35
41;S04;A;pre;1;59.98566342900673;[0.015806300012627617, 0.016293599997879937, 0.017275099991820753, 0.01655840000603348];64;4;0.05012709999573417;2.tif;mask.tiff;-0.14;left;['left'];0.19848710001679137;1;0.948;2.9812529999762774;66
42;S04;A;pre;1;59.98566342900673;[0.016920399997616187, 0.01695389999076724, 0.016326199984177947, 0.01672430001781322];83;2;0.05000439999275841;blank.tiff;mask.tiff;0.14;a;['right'];0.3146571999823209;0;2.093;4.247413500008406;33
43;S04;A;pre;1;59.98566342900673;[0.01686960001825355, 0.01677009998820722, 0.016654100007144734, 0.016520399978617206];70;4;0.04994459997396916;8.tif;mask.tiff;-0.14;right;['right'];0.1215754000004381;1;1.499;3.455961399973603;72
44;S04;A;pre;1;59.98566342900673;[0.014976799982832745, 0.016150200011907145, 0.017214299994520843, 0.01598050000029616];59;3;0.04934500000672415;3.tif;mask.tiff;0.14;left;['right'];0.24331449999590404;0;0.881;2.9595867000170983;53
45;S04;A;pre;1;59.98566342900673;[0.016163699998287484, 0.01657629999681376, 0.017279200023040175, 0.01644889998715371];76;5;0.050304400007007644;7.tif;mask.tiff;-0.14;right;['right'];0.1408192999952007;1;0.732;2.7254742000077385;86
46;S04;A;pre;1;59.98566342900673;[0.014617200009524822, 0.01698819999000989, 0.01648879999993369, 0.016031900013331324];87;4;0.0495089000032749;blank.tiff;mask.tiff;0.14;a;['right'];0.15432729999884032;0;0.755;2.753539700002875;65
47;S04;A;pre;1;59.98566342900673;[0.017272900004172698, 0.016571200016187504, 0.016250499989837408, 0.016766799992183223];31;4;0.049588499998208135;8.tif;mask.tiff;0.14;right;['right'];0.14399159999447875;1;0.912;2.893553300003987;73
48;S04;A;pre;1;59.98566342900673;[0.016212400019867346, 0.016602399991825223, 0.017028700007358566, 0.016554799978621304];19;3;0.05018589997780509;3.tif;mask.tiff;0.14;left;['right'];0.11642779997782782;0;0.967;2.916502899985062;53
49;S04;A;pre;1;59.98566342900673;[0.015194400009931996, 0.01742089999606833, 0.01599119999445975, 0.01698820001911372];21;3;0.050400300009641796;7.tif;mask.tiff;0.14;right;['right'];0.15970270000980236;1;1.628;3.6259755000064615;55
50;S04;A;pre;1;59.98566342900673;[0.01636109998798929, 0.016858200018759817, 0.016905399999814108, 0.0168159999884665];55;2;0.050579600007040426;8.tif;mask.tiff;0.14;right;['right'];0.11018270000931807;1;0.727;2.693382900004508;41
51;S04;A;pre;1;59.98566342900673;[0.01786510000238195, 0.01600149998557754, 0.017262600013054907, 0.016913200000999495];9;2;0.05017729999963194;2.tif;mask.tiff;0.14;left;['left'];0.5132350999920163;1;0.746;3.0961017000081483;35
52;S04;A;pre;1;59.98566342900673;[0.01707530001294799, 0.016894100001081824, 0.016550500004086643, 0.016382400004658848];58;3;0.049827000009827316;3.tif;mask.tiff;-0.14;left;['left'];0.18095129998982884;1;0.609;2.630807300010929;52
53;S04;A;pre;1;59.98566342900673;[0.016231999994488433, 0.017368300002999604, 0.016670599987264723, 0.01629299999331124];43;1;0.05033189998357557;3.tif;mask.tiff;0.14;left;['left'];0.18284399999538437;0;1.978;3.9993462999991607;21
54;S04;A;pre;1;59.98566342900673;[0.016891099978238344, 0.016204900020966306, 0.016727599984733388, 0.017146900005172938];44;1;0.05007940001087263;7.tif;mask.tiff;-0.14;right;['right'];0.09994639997603372;0;0.717;2.6500539999979082;22
55;S04;A;pre;1;59.98566342900673;[0.016619900008663535, 0.01693340000929311, 0.016963499976554886, 0.01675870001781732];22;3;0.05065560000366531;8.tif;mask.tiff;-0.14;right;['right'];0.1283877000096254;1;0.838;2.8288079999911133;56
56;S04;A;pre;1;59.98566342900673;[0.016865999990841374, 0.01663410000037402, 0.016968000010820106, 0.016379699984099716];69;4;0.04998179999529384;7.tif;mask.tiff;0.14;right;['right'];0.16375569999217987;1;1.112;3.114262300019618;71
57;S04;A;pre;1;59.98566342900673;[0.017220300011103973, 0.016269199986709282, 0.016756600001826882, 0.01709639999899082];18;3;0.05012219998752698;3.tif;mask.tiff;-0.14;left;['left'];0.39338449999922886;1;3.132;5.359728599985829;52
58;S04;A;pre;1;59.98566342900673;[0.01632130000507459, 0.016658800013829023, 0.017151899985037744, 0.01675840001553297];27;4;0.05056910001439974;3.tif;mask.tiff;0.14;left;['right'];0.5309105000051204;0;0.976;3.347859100002097;69
59;S04;A;pre;1;59.98566342900673;[0.014280000003054738, 0.01735569999436848, 0.01550050001242198, 0.016533999994862825];23;3;0.049390200001653284;8.tif;mask.tiff;0.14;right;['right'];1.527796100010164;0;1.157;4.527737199998228;57
60;S04;A;pre;1;59.98566342900673;[0.016878800000995398, 0.016679499996826053, 0.01638509999611415, 0.01734220000798814];41;1;0.05040680000092834;2.tif;mask.tiff;0.14;left;['left'];0.4691719000111334;1;4.947;7.252744800003711;19
61;S04;A;pre;1;59.98566342900673;[0.01744130000588484, 0.015866499976255, 0.01674089999869466, 0.016672199999447912];82;2;0.04927959997439757;blank.tiff;mask.tiff;-0.14;a;['right'];0.17029339997679926;0;1.437;3.453510000021197;32
62;S04;A;pre;1;59.98566342900673;[0.015988400002242997, 0.016810800007078797, 0.016412800003308803, 0.016788899985840544];67;4;0.050012499996228144;3.tif;mask.tiff;0.14;left;['left'];0.1782445999851916;1;1.455;3.478181799990125;69
63;S04;A;pre;1;59.98566342900673;[0.01669769998989068, 0.017028500005835667, 0.016581300005782396, 0.01621780000277795];75;5;0.04982760001439601;3.tif;mask.tiff;0.14;left;['right'];0.17220849997829646;0;3.608;5.622212299989769;85
64;S04;A;pre;1;59.98566342900673;[0.017032100004144013, 0.016476299992064014, 0.016984499990940094, 0.01649180002277717];38;5;0.04995260000578128;8.tif;mask.tiff;-0.14;right;['right'];0.5719016999937594;0;1.013;3.4217035000037868;88
65;S04;A;pre;1;59.98566342900673;[0.0039493000076618046, 0.016329799982486293, 0.016378400003304705, 0.01698380001471378];71;4;0.04969200000050478;8.tif;mask.tiff;0.14;right;['right'];0.30231200001435354;1;0.775;2.936140300007537;73
66;S04;A;pre;1;59.98566342900673;[0.017071699985535815, 0.016038000001572073, 0.017486600001575425, 0.01674059999641031];0;1;0.05026519999955781;2.tif;mask.tiff;-0.14;left;['left'];0.3891371999925468;1;0.725;2.9551454999891575;18
67;S04;A;pre;1;59.98566342900673;[0.016908399993553758, 0.0169064000074286, 0.016479100013384596, 0.01608149998355657];90;1;0.049467000004369766;blank.tiff;mask.tiff;-0.14;a;['right'];0.6079815000121016;0;1.58;4.024730900011491;16
68;S04;A;pre;1;59.98566342900673;[0.017079000012017787, 0.016938899992965162, 0.01596879999851808, 0.01690790001885034];63;3;0.04981560001033358;8.tif;mask.tiff;0.14;right;['right'];0.3291791000228841;1;1.591;3.7624768000096083;57
69;S04;A;pre;1;59.98566342900673;[0.013503499998478219, 0.016250699991360307, 0.017326900007901713, 0.01631809998070821];79;5;0.04989569997997023;8.tif;mask.tiff;0.14;right;['right'];0.1322360999765806;1;1.373;3.3490025000064634;89
70;S04;A;pre;1;59.98566342900673;[0.016961099987383932, 0.016561700002057478, 0.016530799999600276, 0.016825800004880875];74;5;0.04991830000653863;3.tif;mask.tiff;-0.14;left;['left'];0.19446560001233593;1;0.762;2.794947400019737;84
71;S04;A;pre;1;59.98566342900673;[0.016385900002205744, 0.01695699998526834, 0.016877699992619455, 0.016371400008210912];99;5;0.05020609998609871;blank.tiff;mask.tiff;0.14;a;['left'];0.1645200999919325;0;0.746;2.7483245999901555;81
72;S04;A;pre;1;59.98566342900673;[0.016951900004642084, 0.016322000010404736, 0.0163227999873925, 0.016474800009746104];98;5;0.04911960000754334;blank.tiff;mask.tiff;-0.14;a;['right'];0.11279230000218377;0;1.161;3.1125586999987718;80
73;S04;A;pre;1;59.98566342900673;[0.015938500000629574, 0.016993299999739975, 0.016671299992594868, 0.016763699997682124];17;3;0.05042829999001697;2.tif;mask.tiff;0.14;left;['right'];0.15096060000360012;1;2.71;4.700906399986707;51
74;S04;A;pre;1;59.98566342900673;[0.01668739999877289, 0.016517700016265735, 0.016876399982720613, 0.01651980000315234];33;5;0.04991390000213869;2.tif;mask.tiff;0.14;left;['left'];0.3761707999801729;1;2.389;4.610085099993739;83
75;S04;A;pre;1;59.98566342900673;[0.016788699984317645, 0.016331200022250414, 0.017201899987412617, 0.016127999988384545];20;3;0.049661099998047575;7.tif;mask.tiff;-0.14;right;['right'];0.26477489998796955;1;3.282;5.381395800010068;54
76;S04;A;pre;1;59.98566342900673;[0.016875100001925603, 0.016565300000365824, 0.01683420001063496, 0.016531000001123175];39;5;0.04993050001212396;8.tif;mask.tiff;0.14;right;['right'];0.40819940000073984;1;1.335;3.591508600016823;89
77;S04;A;pre;1;59.98566342900673;[0.014610399986850098, 0.017291399999521673, 0.016314600012265146, 0.016949899989413098];92;2;0.050555900001199916;blank.tiff;mask.tiff;-0.14;a;['left'];0.40041169998585247;0;1.071;3.3171000000147615;32
78;S04;A;pre;1;59.98566342900673;[0.015695100009907037, 0.016600700007984415, 0.016040999995311722, 0.01717039998038672];72;5;0.049812099983682856;2.tif;mask.tiff;-0.14;left;['left'];1.166508199996315;1;1.795;4.800985300011234;82
79;S04;A;pre;1;59.98566342900673;[0.0162768000154756, 0.016874299995834008, 0.0165835999941919, 0.0170767999952659];77;5;0.05053469998529181;7.tif;mask.tiff;0.14;right;['right'];0.2869176999956835;1;3.269;5.403871199989226;87
80;S04;A;pre;1;59.98566342900673;[0.01611379999667406, 0.016597600013483316, 0.017318199999863282, 0.01597009997931309];91;1;0.04988589999265969;blank.tiff;mask.tiff;0.14;a;['right'];4.29093090002425;0;3.217;9.340981199988164;17
81;S04;A;pre;1;59.98566342900673;[0.017129499989096075, 0.01635830002487637, 0.016501099977176636, 0.016958699998212978];94;3;0.049818100000265986;blank.tiff;mask.tiff;-0.14;a;['right'];0.3534608999907505;0;0.758;2.9538557999767363;48
82;S04;A;pre;1;59.98566342900673;[0.017258599982596934, 0.016147000016644597, 0.016767799999797717, 0.01683670000056736];1;1;0.049751500017009676;2.tif;mask.tiff;0.14;left;['left'];0.35113840000121854;1;0.729;2.9183774999983143;19
83;S04;A;pre;1;59.98566342900673;[0.01598050000029616, 0.016961699991952628, 0.017138199997134507, 0.015751800005091354];62;3;0.04985169999417849;8.tif;mask.tiff;-0.14;right;['right'];0.16794310000841506;1;1.046;3.0511119999864604;56
84;S04;A;pre;1;59.98566342900673;[0.015055600000778213, 0.01701779998256825, 0.01613890001317486, 0.01678340000216849];73;5;0.0499400999979116;2.tif;mask.tiff;0.14;left;['left'];0.16364300000714138;1;2.11;4.163111300003948;83
85;S04;A;pre;1;59.98566342900673;[0.016664700000546873, 0.016908799996599555, 0.016235000017331913, 0.016551999986404553];80;1;0.04969580000033602;blank.tiff;mask.tiff;-0.14;a;['left'];0.2013831000076607;0;1.055;3.1020057999994606;16
86;S04;A;pre;1;59.98566342900673;[0.016338799992809072, 0.016544100013561547, 0.016512699978193268, 0.01694510001107119];78;5;0.050001900002826005;8.tif;mask.tiff;-0.14;right;['right'];0.16612939999322407;1;1.109;3.116416000004392;88
87;S04;A;pre;1;59.98566342900673;[0.016190399997867644, 0.017327000008663163, 0.01690489999600686, 0.016132599994307384];51;2;0.05036449999897741;3.tif;mask.tiff;0.14;left;['left'];0.23104050001711585;1;0.709;2.7807731999782845;37
88;S04;A;pre;1;59.98566342900673;[0.016628299985313788, 0.017974000016693026, 0.015699499985203147, 0.017063400009647012];65;4;0.050736900011543185;2.tif;mask.tiff;0.14;left;['left'];0.31412720002117567;1;2.398;4.547427899989998;67
89;S04;A;pre;1;59.98566342900673;[0.016267400002107024, 0.016775299998698756, 0.0164842999947723, 0.016439600003650412];96;4;0.04969919999712147;blank.tiff;mask.tiff;-0.14;a;['right'];0.23419079999439418;0;1.081;3.1676495999854524;64
90;S04;A;pre;1;59.98566342900673;[0.016533699992578477, 0.0168163999915123, 0.01677630000631325, 0.016496800002641976];4;1;0.050089500000467524;7.tif;mask.tiff;-0.14;right;['right'];0.46524930000305176;1;2.998;5.298146500019357;22
91;S04;A;pre;1;59.98566342900673;[0.015596400015056133, 0.01720859998022206, 0.016443700005766004, 0.01717040000949055];66;4;0.050822699995478615;3.tif;mask.tiff;-0.14;left;['left'];0.9776394999935292;1;1.139;3.9607881999982055;68
92;S04;A;pre;1;59.98566342900673;[0.01622379999025725, 0.017155100009404123, 0.016572099993936718, 0.016861099982634187];57;3;0.05058829998597503;2.tif;mask.tiff;0.14;left;['left'];0.22893730000942014;1;1.729;3.79644149998785;51
93;S04;A;pre;1;59.98566342900673;[0.01622479999787174, 0.017203499999595806, 0.01639860001159832, 0.0171789999876637];5;1;0.050781099998857826;7.tif;mask.tiff;0.14;right;['right'];0.19642530000419356;1;2.993;5.029797700000927;23
94;S04;A;pre;1;59.98566342900673;[0.013835699995979667, 0.01646230000187643, 0.016662600013660267, 0.017034699994837865];47;1;0.05015960001037456;8.tif;mask.tiff;0.14;right;['right'];1.0532664000056684;1;1.007;3.9025276000029407;25
95;S04;A;pre;1;59.98566342900673;[0.016211399983149022, 0.01738820000900887, 0.01601150000351481, 0.01719230000162497];37;5;0.05059200001414865;7.tif;mask.tiff;0.14;right;['right'];0.14860300000873394;1;1.176;3.1649411000253167;87
96;S04;A;pre;1;59.98566342900673;[0.016292299987981096, 0.01664750001509674, 0.017373599985148758, 0.015591600007610396];46;1;0.04961270000785589;8.tif;mask.tiff;-0.14;right;['right'];0.21174790000077337;0;1.289;3.3443109999934677;24
97;S04;A;pre;1;59.98566342900673;[0.01729020001948811, 0.017108799976995215, 0.01591240000561811, 0.01676270001917146];40;1;0.04978390000178479;2.tif;mask.tiff;-0.14;left;['right'];0.1996076999930665;0;6.507;8.54893119999906;18
98;S04;A;pre;1;59.98566342900673;[0.016352000006008893, 0.017038899997714907, 0.016348900011507794, 0.016925100004300475];50;2;0.050312900013523176;3.tif;mask.tiff;-0.14;left;['left'];0.18969999998807907;1;0.886;2.923638000007486;36
99;S04;A;pre;1;59.98566342900673;[0.013353099988307804, 0.01702810000278987, 0.016424000001279637, 0.017196500004502013];36;5;0.05064860000857152;7.tif;mask.tiff;-0.14;right;['right'];0.231987700011814;1;1.475;3.5505580000171904;86
100;S04;A;pre;2;59.98566342900673;[0.016502699989359826, 0.017037300014635548, 0.01661789999343455, 0.01650949998293072];41;1;0.050164699991000816;2.tif;mask.tiff;0.14;left;['left'];0.13161889999173582;1;3.381;5.348196599981748;19
101;S04;A;pre;2;59.98566342900673;[0.016494299983605742, 0.017165099998237565, 0.016058300010627136, 0.01667230000020936];27;4;0.04989570000907406;3.tif;mask.tiff;0.14;left;['left'];0.24358030001167208;1;1.293;3.3765045000182;69
102;S04;A;pre;2;59.98566342900673;[0.01085280001279898, 0.016864300007000566, 0.01636119998875074, 0.016745900007663295];46;1;0.0499714000034146;8.tif;mask.tiff;-0.14;right;['right'];0.14319410000462085;1;0.636;2.642826499999501;24
103;S04;A;pre;2;59.98566342900673;[0.016574100009165704, 0.016683599998941645, 0.016901599999982864, 0.016425400011939928];22;3;0.05001060001086444;8.tif;mask.tiff;-0.14;right;['right'];0.1097814999811817;0;0.916;2.8927180000173394;56
104;S04;A;pre;2;59.98566342900673;[0.016004000004613772, 0.017563700006576255, 0.01629029997275211, 0.016606500023044646];65;4;0.05046050000237301;2.tif;mask.tiff;0.14;left;['left'];0.1777703000116162;1;1.135;3.160290600004373;67
105;S04;A;pre;2;59.98566342900673;[0.017672899994067848, 0.01616140000987798, 0.016253899986622855, 0.01675270000123419];82;2;0.049167999997735023;blank.tiff;mask.tiff;-0.14;a;['left'];0.6161612000141758;0;0.89;3.349756100011291;32
106;S04;A;pre;2;59.98566342900673;[0.01641149999340996, 0.017079899989767, 0.015976599999703467, 0.01757330002146773];96;4;0.0506298000109382;blank.tiff;mask.tiff;-0.14;a;['right'];0.1219383999996353;0;0.77;2.7225631000183057;64
107;S04;A;pre;2;59.98566342900673;[0.01695570000447333, 0.01686380000319332, 0.016289199993479997, 0.01677180000115186];13;2;0.049924799997825176;7.tif;mask.tiff;0.14;right;['right'];0.27342650000355206;1;0.698;2.807702399994014;39
108;S04;A;pre;2;59.98566342900673;[0.015518699976382777, 0.01663240001653321, 0.016833600006066263, 0.01654809998581186];33;5;0.05001410000841133;2.tif;mask.tiff;0.14;left;['left'];0.7669224999845028;1;0.998;3.6000448999984656;83
109;S04;A;pre;2;59.98566342900673;[0.01721630000974983, 0.01614799999515526, 0.01663399999961257, 0.016961799992714077];77;5;0.04974379998748191;7.tif;mask.tiff;0.14;right;['right'];0.3645230999973137;1;0.942;3.1479680000047665;87
110;S04;A;pre;2;59.98566342900673;[0.01650390002760105, 0.01656889999867417, 0.017261799977859482, 0.01585750002413988];17;3;0.04968820000067353;2.tif;mask.tiff;0.14;left;['left'];1.6484448999981396;1;1.307;4.797682600008557;51
111;S04;A;pre;2;59.98566342900673;[0.017425999976694584, 0.016397700004745275, 0.01648879999993369, 0.01696579999406822];49;2;0.049852299998747185;2.tif;mask.tiff;0.14;left;['left'];1.1348199999774806;1;1.012;3.9844750000047497;35
112;S04;A;pre;2;59.98566342900673;[0.01754089997848496, 0.015735699998913333, 0.016827400017064065, 0.016588600003160536];68;4;0.049151700019137934;7.tif;mask.tiff;-0.14;right;['right'];0.15154520000214688;0;1.466;3.451381199993193;70
113;S04;A;pre;2;59.98566342900673;[0.012643199996091425, 0.01729940000222996, 0.01630630000727251, 0.016310400009388104];81;1;0.049916100018890575;blank.tiff;mask.tiff;0.14;a;['left'];0.45934349999879487;0;0.741;3.042509999999311;17
114;S04;A;pre;2;59.98566342900673;[0.016111800010548905, 0.016954299993813038, 0.016377299994928762, 0.01692900000489317];95;3;0.05026059999363497;blank.tiff;mask.tiff;0.14;a;['right'];0.42869030000292696;0;0.948;3.2121635999938007;49
115;S04;A;pre;2;59.98566342900673;[0.01612559999921359, 0.016502599988598377, 0.017030400020303205, 0.016511699999682605];86;4;0.050044700008584186;blank.tiff;mask.tiff;-0.14;a;['right'];2.4223383000062313;0;1.724;5.989115500007756;64
116;S04;A;pre;2;59.98566342900673;[0.016863000026205555, 0.01644279999891296, 0.01702939998358488, 0.01646800001617521];30;4;0.04994019999867305;8.tif;mask.tiff;-0.14;right;['right'];0.6818779000022914;0;1.719;4.24870130000636;72
117;S04;A;pre;2;59.98566342900673;[0.016548599989619106, 0.016571199987083673, 0.016571500018471852, 0.016461599996546283];92;2;0.04960430000210181;blank.tiff;mask.tiff;-0.14;a;['left'];0.5503132999874651;0;1.029;3.4170366000034846;32
118;S04;A;pre;2;59.98566342900673;[0.015886499983025715, 0.01701770001091063, 0.01688720000674948, 0.016076399973826483];72;5;0.049981299991486594;2.tif;mask.tiff;-0.14;left;['left'];0.222531200008234;1;1.02;3.0899843999941368;82
119;S04;A;pre;2;59.98566342900673;[0.01656120002735406, 0.0159317999787163, 0.018187600013334304, 0.015760599984787405];74;5;0.04987999997683801;3.tif;mask.tiff;-0.14;left;['left'];0.11964969997643493;1;0.753;2.735870200005593;84
120;S04;A;pre;2;59.98566342900673;[0.016606400022283196, 0.0164560999837704, 0.01771390001522377, 0.015927899978123605];40;1;0.05009789997711778;2.tif;mask.tiff;-0.14;left;['left'];0.11369840000406839;1;0.73;2.6801758999936283;18
121;S04;A;pre;2;59.98566342900673;[0.016440500010503456, 0.0167731000110507, 0.016716399986762553, 0.016902700008358806];14;2;0.05039220000617206;8.tif;mask.tiff;-0.14;right;['right'];0.08745240001007915;1;4.259;6.187408500001766;40
122;S04;A;pre;2;59.98566342900673;[0.01701050001429394, 0.016562000004341826, 0.016368199983844534, 0.01671690001967363];84;3;0.04964710000785999;blank.tiff;mask.tiff;-0.14;a;['right'];0.17285939998691902;0;0.969;2.989938999991864;48
123;S04;A;pre;2;59.98566342900673;[0.017307000001892447, 0.016211300011491403, 0.016800199984572828, 0.01642220001667738];88;5;0.04943370001274161;blank.tiff;mask.tiff;-0.14;a;['right'];0.1004741000069771;0;0.854;2.800018000009004;80
124;S04;A;pre;2;59.98566342900673;[0.017242100002476946, 0.016698100022040308, 0.01636149999103509, 0.016389099997468293];6;1;0.04944870001054369;8.tif;mask.tiff;-0.14;right;['right'];1.0091707999818027;1;0.834;3.6762010999955237;24
125;S04;A;pre;2;59.98566342900673;[0.01654219999909401, 0.017228900018380955, 0.0165467000042554, 0.016732499992940575];83;2;0.05050810001557693;blank.tiff;mask.tiff;0.14;a;['left'];0.42257779999636114;0;2.841;5.1055193999782205;33
126;S04;A;pre;2;59.98566342900673;[0.017036499979440123, 0.016657200001645833, 0.017244000016944483, 0.01560139999492094];70;4;0.049502600013511255;8.tif;mask.tiff;-0.14;right;['right'];0.2066573000047356;1;1.025;3.0729926000058185;72
127;S04;A;pre;2;59.98566342900673;[0.01643079999485053, 0.017169099999591708, 0.016726300003938377, 0.0168413000064902];85;3;0.050736700010020286;blank.tiff;mask.tiff;0.14;a;['right'];0.1462286000023596;0;1.097;3.078896299994085;49
128;S04;A;pre;2;59.98566342900673;[0.016689100011717528, 0.016516200004843995, 0.016991599986795336, 0.016566200007218868];9;2;0.0500739999988582;2.tif;mask.tiff;0.14;left;['right'];0.23245509999105707;1;1.114;3.1819815000053495;35
129;S04;A;pre;2;59.98566342900673;[0.016012300009606406, 0.017454499989980832, 0.016674499987857416, 0.016236200026469305];43;1;0.05036520000430755;3.tif;mask.tiff;0.14;left;['left'];1.4775164000166114;0;4.878;8.194225099985488;21
130;S04;A;pre;2;59.98566342900673;[0.016978299972834066, 0.016281800024444237, 0.017237699998077005, 0.01636259999941103];76;5;0.049882100021932274;7.tif;mask.tiff;-0.14;right;['right'];0.18490520000341348;1;2.639;4.667931299976772;86
131;S04;A;pre;2;59.98566342900673;[0.016922300012083724, 0.01578339998377487, 0.017393500020261854, 0.016244699974777177];20;3;0.0494215999788139;7.tif;mask.tiff;-0.14;right;['right'];0.08848909998778254;1;0.831;2.754712900001323;54
132;S04;A;pre;2;59.98566342900673;[0.01689030000125058, 0.016821199998958036, 0.016906000004382804, 0.016563900018809363];10;2;0.050291100022150204;3.tif;mask.tiff;-0.14;left;['left'];0.10194110000156797;1;0.683;2.6186580999928992;36
133;S04;A;pre;2;59.98566342900673;[0.016495699994266033, 0.016805199993541464, 0.01662380000925623, 0.015984199999365956];32;5;0.04941320000216365;2.tif;mask.tiff;-0.14;left;['left'];0.16848570000729524;1;1.533;3.552707900002133;82
134;S04;A;pre;2;59.98566342900673;[0.01632120000431314, 0.016973799996776506, 0.016474400006700307, 0.016914500010898337];45;1;0.05036270001437515;7.tif;mask.tiff;0.14;right;['right'];0.27441990000079386;0;3.989;6.108417500014184;23
135;S04;A;pre;2;59.98566342900673;[0.01706390001345426, 0.015928000007988885, 0.01681489998009056, 0.01642070000525564];62;3;0.04916359999333508;8.tif;mask.tiff;-0.14;right;['right'];0.9536293999990448;1;1.825;4.62025830001221;56
136;S04;A;pre;2;59.98566342900673;[0.015831299999263138, 0.017150600004242733, 0.01648999997996725, 0.016867400001501665];34;5;0.05050799998571165;3.tif;mask.tiff;-0.14;left;['left'];0.35935490002157167;1;1.491;3.6921077000151854;84
137;S04;A;pre;2;59.98566342900673;[0.016150399984326214, 0.016553599998587742, 0.01735410001128912, 0.01586039998801425];55;2;0.04976809999789111;8.tif;mask.tiff;0.14;right;['right'];0.11558360001072288;1;0.762;2.7158972999895923;41
138;S04;A;pre;2;59.98566342900673;[0.016803700011223555, 0.01727089998894371, 0.016065800009528175, 0.01670339997508563];50;2;0.05004009997355752;3.tif;mask.tiff;-0.14;left;['left'];0.7790729999833275;1;0.715;3.328534200001741;36
139;S04;A;pre;2;59.98566342900673;[0.016596300003584474, 0.016573799977777526, 0.017074400006094947, 0.016295400011586025];73;5;0.0499435999954585;2.tif;mask.tiff;0.14;left;['left'];0.4815346999967005;1;2.851;5.165170399995986;83
140;S04;A;pre;2;59.98566342900673;[0.01674520000233315, 0.01706949999788776, 0.016702000022633, 0.016700299980584532];48;2;0.050471800001105294;2.tif;mask.tiff;-0.14;left;['left'];0.1834243999910541;1;0.982;2.999830699991435;34
141;S04;A;pre;2;59.98566342900673;[0.016730599978473037, 0.016771300026448444, 0.01666669998667203, 0.01647090000915341];61;3;0.04990890002227388;7.tif;mask.tiff;0.14;right;['right'];0.440043800015701;1;0.849;3.1224016999767628;55
142;S04;A;pre;2;59.98566342900673;[0.016080999979749322, 0.016916000022320077, 0.016394899983424693, 0.016514799994183704];79;5;0.049825699999928474;8.tif;mask.tiff;0.14;right;['right'];0.07876010000472888;1;0.803;2.711915299994871;89
143;S04;A;pre;2;59.98566342900673;[0.017261100001633167, 0.016652399994200096, 0.016434500023024157, 0.016627599979983643];54;2;0.049714499997207895;8.tif;mask.tiff;-0.14;right;['right'];0.07880780001869425;0;0.933;2.8447917999874335;40
144;S04;A;pre;2;59.98566342900673;[0.017015600024024025, 0.016958799998974428, 0.016540999989956617, 0.01630529999965802];29;4;0.04980509998858906;7.tif;mask.tiff;0.14;right;['right'];0.19332449999637902;1;1.509;3.5429594999877736;71
145;S04;A;pre;2;59.98566342900673;[0.016535599977942184, 0.016765400010626763, 0.01680139999371022, 0.016670300014084205];11;2;0.05023710001842119;3.tif;mask.tiff;0.14;left;['right'];0.1316819000057876;0;1.164;3.131498000002466;37
146;S04;A;pre;2;59.98566342900673;[0.016686399991158396, 0.016556600021431223, 0.01657929999055341, 0.017054399999324232];25;4;0.050190300011308864;2.tif;mask.tiff;0.14;left;['left'];0.4011760999856051;1;0.731;2.9680017000064254;67
147;S04;A;pre;2;59.98566342900673;[0.016585500008659437, 0.01664739998523146, 0.016452200012281537, 0.016790399997262284];58;3;0.04988999999477528;3.tif;mask.tiff;-0.14;left;['left'];0.1644635999982711;1;0.751;2.7475787999865133;52
148;S04;A;pre;2;59.98566342900673;[0.01657340000383556, 0.017046399996615946, 0.01649780001025647, 0.016991899989079684];59;3;0.0505360999959521;3.tif;mask.tiff;0.14;left;['right'];0.11668450001161546;0;1.221;3.183905499987304;53
149;S04;A;pre;2;59.98566342900673;[0.016722200001822785, 0.017124700010754168, 0.016700899985153228, 0.01695280001149513];8;2;0.050778400007402524;2.tif;mask.tiff;-0.14;left;['left'];0.09045119999791496;1;0.768;2.7066763999755494;34
150;S04;A;pre;2;59.98566342900673;[0.016800699988380075, 0.017162400006782264, 0.016645399999106303, 0.016011100000469014];24;4;0.04981890000635758;2.tif;mask.tiff;-0.14;left;['left'];0.07398340001236647;1;0.699;2.6075877999828663;66
151;S04;A;pre;2;59.98566342900673;[0.016786099993623793, 0.016174000018509105, 0.016732799995224923, 0.017227600008482113];47;1;0.05013440002221614;8.tif;mask.tiff;0.14;right;['right'];0.1913234999810811;1;1.067;3.091313300014008;25
152;S04;A;pre;2;59.98566342900673;[0.016416800004662946, 0.017342499981168658, 0.016136799997184426, 0.016511699999682605];4;1;0.04999099997803569;7.tif;mask.tiff;-0.14;right;['right'];0.4777341000153683;1;1.032;3.344665900018299;22
153;S04;A;pre;2;59.98566342900673;[0.01608000000123866, 0.017341400001896545, 0.01614069999777712, 0.016678999993018806];60;3;0.05016109999269247;7.tif;mask.tiff;-0.14;right;['right'];0.18329929999890737;1;0.905;2.9336302999872714;54
154;S04;A;pre;2;59.98566342900673;[0.016326199984177947, 0.016919599991524592, 0.016609200014499947, 0.01666659998591058];90;1;0.05019539999193512;blank.tiff;mask.tiff;-0.14;a;['right'];0.819009399972856;0;0.926;3.5863810000009835;16
155;S04;A;pre;2;59.98566342900673;[0.017030100018018857, 0.016243899997789413, 0.01699699999880977, 0.016659599990816787];99;5;0.04990049998741597;blank.tiff;mask.tiff;0.14;a;['left'];0.5635968999995384;0;0.986;3.381032800010871;81
156;S04;A;pre;2;59.98566342900673;[0.016775399999460205, 0.016446299996459857, 0.016199100005906075, 0.01745610000216402];66;4;0.05010150000452995;3.tif;mask.tiff;-0.14;left;['left'];0.342814300005557;1;1.002;3.1763716000132263;68
157;S04;A;pre;2;59.98566342900673;[0.008754100010264665, 0.017280700005358085, 0.016380199987906963, 0.01637749999645166];97;4;0.05003839998971671;blank.tiff;mask.tiff;0.14;a;['left'];0.17458839999744669;0;1.426;3.474805900012143;65
158;S04;A;pre;2;59.98566342900673;[0.01674809999531135, 0.01669610000681132, 0.016949099983321503, 0.016055000014603138];71;4;0.04970020000473596;8.tif;mask.tiff;0.14;right;['right'];1.0609454999794252;1;1.074;3.9783497999887913;73
159;S04;A;pre;2;59.98566342900673;[0.016803199978312477, 0.01698060001945123, 0.016870699997525662, 0.01607119999243878];67;4;0.04992250000941567;3.tif;mask.tiff;0.14;left;['left'];0.24102610000409186;1;0.698;2.774541799997678;69
160;S04;A;pre;2;59.98566342900673;[0.01650359999621287, 0.01717950002057478, 0.016542899975320324, 0.016134300007252023];2;1;0.049856700003147125;3.tif;mask.tiff;-0.14;left;['left'];0.5171252000145614;0;0.815;3.1685943999909796;20
161;S04;A;pre;2;59.98566342900673;[0.017141499993158504, 0.017517600004794076, 0.016021699993871152, 0.016939699999056756];44;1;0.050478999997721985;7.tif;mask.tiff;-0.14;right;['right'];0.11306959998910315;1;0.719;2.6631686000037007;22
162;S04;A;pre;2;59.98566342900673;[0.016308400023262948, 0.016659599990816787, 0.01707860000897199, 0.015943199978210032];16;3;0.04968139997799881;2.tif;mask.tiff;-0.14;left;['left'];0.17448449999210425;1;1.29;3.307983000006061;50
163;S04;A;pre;2;59.98566342900673;[0.014373400015756488, 0.01690779998898506, 0.01635550000355579, 0.01644109998596832];91;1;0.04970439997850917;blank.tiff;mask.tiff;0.14;a;['left'];0.7382261999882758;0;3.14;5.721507599984761;17
164;S04;A;pre;2;59.98566342900673;[0.016688400006387383, 0.016169300011824816, 0.01696149999042973, 0.01648419999401085];42;1;0.049614999996265396;3.tif;mask.tiff;-0.14;left;['left'];0.2939598999801092;1;3.388;5.527376700018067;20
165;S04;A;pre;2;59.98566342900673;[0.016957299987552688, 0.015991699998266995, 0.016796200012322515, 0.016887700010556728];7;1;0.04967560002114624;8.tif;mask.tiff;0.14;right;['right'];0.1801712000160478;1;1.201;3.2288149000087287;25
166;S04;A;pre;2;59.98566342900673;[0.0048423999978695065, 0.016998900013277307, 0.017240899993339553, 0.01638489999459125];12;2;0.05062470000120811;7.tif;mask.tiff;-0.14;right;['right'];0.10875839999062009;1;1.572;3.5424993000051472;38
167;S04;A;pre;2;59.98566342900673;[0.016176600009202957, 0.016985499998554587, 0.016591999999945983, 0.016657300002407283];93;2;0.05023480000090785;blank.tiff;mask.tiff;0.14;a;['right'];0.08365489999414422;0;0.741;2.683897699986119;33
168;S04;A;pre;2;59.98566342900673;[0.015876499994192272, 0.01689620001707226, 0.01645480000297539, 0.016651999991154298];52;2;0.05000300001120195;7.tif;mask.tiff;-0.14;right;['right'];0.0440758999902755;1;1.025;2.911284000001615;38
169;S04;A;pre;2;59.98566342900673;[0.0166886999795679, 0.016717299993615597, 0.016649299999698997, 0.016970000026049092];23;3;0.050336600019363686;8.tif;mask.tiff;0.14;right;['right'];0.069973800011212;1;0.978;2.885960099985823;57
170;S04;A;pre;2;59.98566342900673;[0.016256900009466335, 0.016881899995496497, 0.016404599999077618, 0.016729399998439476];18;3;0.05001589999301359;3.tif;mask.tiff;-0.14;left;['left'];0.1606325000175275;0;1.247;3.243154499999946;52
171;S04;A;pre;2;59.98566342900673;[0.017760299990186468, 0.01574329999857582, 0.017175799992401153, 0.016696700011380017];87;4;0.04961580000235699;blank.tiff;mask.tiff;0.14;a;['left'];0.10183680002228357;0;0.766;2.701831000013044;65
172;S04;A;pre;2;59.98566342900673;[0.015616700024111196, 0.017059599980711937, 0.01678950001951307, 0.016571099986322224];0;1;0.05042019998654723;2.tif;mask.tiff;-0.14;left;['left'];0.21111760000349022;1;1.398;3.4436120000027586;18
173;S04;A;pre;2;59.98566342900673;[0.01659690000815317, 0.016704199981177226, 0.01662350000697188, 0.01699390000430867];21;3;0.05032159999245778;7.tif;mask.tiff;0.14;right;['right'];0.26475239999126643;1;0.645;2.7479124999954365;55
174;S04;A;pre;2;59.98566342900673;[0.016811099980259314, 0.016628500015940517, 0.01688599999761209, 0.016268900013528764];56;3;0.04978340002708137;2.tif;mask.tiff;-0.14;left;['left'];0.1783075999992434;1;1.709;3.7285052000079304;50
175;S04;A;pre;2;59.98566342900673;[0.016672800004016608, 0.01681650002137758, 0.016880499984836206, 0.016845600010128692];3;1;0.050542600016342476;3.tif;mask.tiff;0.14;left;['left'];0.346868299995549;1;2.436;4.629342700005509;21
176;S04;A;pre;2;59.98566342900673;[0.015458900015801191, 0.017088499997043982, 0.01617899999837391, 0.01690379998763092];5;1;0.05017129998304881;7.tif;mask.tiff;0.14;right;['right'];0.5776678000111133;1;3.662;6.077087199984817;23
177;S04;A;pre;2;59.98566342900673;[0.01630360001581721, 0.016984199988655746, 0.016286600002786145, 0.017159000009996817];38;5;0.05042980000143871;8.tif;mask.tiff;-0.14;right;['right'];1.1075929999933578;1;2.619;5.573933000006946;88
178;S04;A;pre;2;59.98566342900673;[0.01642810000339523, 0.01690069999312982, 0.016196400014450774, 0.017187099991133437];28;4;0.05028419999871403;7.tif;mask.tiff;-0.14;right;['right'];0.6306421000044793;1;3.402;5.880841799982591;70
179;S04;A;pre;2;59.98566342900673;[0.016561099997488782, 0.016496900003403425, 0.01716889999806881, 0.016098399995826185];26;4;0.04976419999729842;3.tif;mask.tiff;-0.14;left;['left'];0.11356549998163246;1;0.923;2.8969902000098955;68
180;S04;A;pre;2;59.98566342900673;[0.01632120000431314, 0.016443999978946522, 0.01710240001557395, 0.01640279998537153];31;4;0.049949199979892;8.tif;mask.tiff;0.14;right;['right'];0.10525980000966229;0;0.836;2.7713841999939177;73
181;S04;A;pre;2;59.98566342900673;[0.01715540001168847, 0.015574899996863678, 0.01725800000713207, 0.016412600001785904];89;5;0.04924550000578165;blank.tiff;mask.tiff;0.14;a;['left'];0.12696170000708662;0;0.978;2.959729800000787;81
182;S04;A;pre;2;59.98566342900673;[0.016312799998559058, 0.01667089998954907, 0.016425700014224276, 0.01690819999203086];80;1;0.050004799995804206;blank.tiff;mask.tiff;-0.14;a;['right'];0.3044530000188388;0;1.182;3.337084099999629;16
183;S04;A;pre;2;59.98566342900673;[0.016600200004177168, 0.01693330000853166, 0.0164900999807287, 0.01615820001461543];94;3;0.04958160000387579;blank.tiff;mask.tiff;-0.14;a;['left'];0.21122959998319857;0;1.501;3.543825899978401;48
184;S04;A;pre;2;59.98566342900673;[0.01600279999547638, 0.016851499996846542, 0.017102800018619746, 0.016743099986342713];51;2;0.050697400001809;3.tif;mask.tiff;0.14;left;['right'];0.2356619999918621;0;1.406;3.4855234999849927;37
185;S04;A;pre;2;59.98566342900673;[0.01692000002367422, 0.01591369998641312, 0.0172444999916479, 0.016098499996587634];69;4;0.049256699974648654;7.tif;mask.tiff;0.14;right;['right'];0.4061048000003211;1;1.265;3.5068897000164725;71
186;S04;A;pre;2;59.98566342900673;[0.016766099986853078, 0.017196500004502013, 0.016284900018945336, 0.01690049999160692];19;3;0.05038190001505427;3.tif;mask.tiff;0.14;left;['left'];0.1453341000014916;1;0.741;2.7281970999902114;53
187;S04;A;pre;2;59.98566342900673;[0.01785199998994358, 0.016461799998069182, 0.01611399999819696, 0.017034699994837865];63;3;0.04961049999110401;8.tif;mask.tiff;0.14;right;['right'];0.26091270000324585;0;3.585;5.69448310000007;57
188;S04;A;pre;2;59.98566342900673;[0.017004799999995157, 0.016357600019546226, 0.016214199975365773, 0.017043700005160645];64;4;0.04961550000007264;2.tif;mask.tiff;-0.14;left;['left'];0.21017199999187142;1;1.022;3.0767029999988154;66
189;S04;A;pre;2;59.98566342900673;[0.013450500002363697, 0.016421599983004853, 0.016357700020307675, 0.0169093000004068];57;3;0.04968860000371933;2.tif;mask.tiff;0.14;left;['left'];0.2657570999872405;1;1.802;3.915874799975427;51
190;S04;A;pre;2;59.98566342900673;[0.016811400011647493, 0.016639200010104105, 0.01698939999914728, 0.016666999988956377];39;5;0.05029559999820776;8.tif;mask.tiff;0.14;right;['right'];0.3139569999766536;1;1.783;3.930121599987615;89
191;S04;A;pre;2;59.98566342900673;[0.01666950000799261, 0.01748579999548383, 0.0165778000082355, 0.01629470000625588];37;5;0.05035830000997521;7.tif;mask.tiff;0.14;right;['right'];0.11023479999857955;1;3.795;5.7433911000262015;87
192;S04;A;pre;2;59.98566342900673;[0.01701469998806715, 0.016616700013400987, 0.016948800010140985, 0.01657639999757521];1;1;0.05014190002111718;2.tif;mask.tiff;0.14;left;['left'];0.14447299999301322;1;2.834;4.811306399991736;19
193;S04;A;pre;2;59.98566342900673;[0.006089000002248213, 0.017170000006444752, 0.016259700001683086, 0.017145999998319894];53;2;0.05057570000644773;7.tif;mask.tiff;0.14;right;['right'];0.1419391000235919;1;1.139;3.1427679999906104;39
194;S04;A;pre;2;59.98566342900673;[0.01664590000291355, 0.017083799990359694, 0.016019800008507445, 0.017278899991651997];15;2;0.050382499990519136;8.tif;mask.tiff;0.14;right;['right'];0.09551879999344237;1;1.428;3.3624843999859877;41
195;S04;A;pre;2;59.98566342900673;[0.005180900014238432, 0.016334099986124784, 0.016942500020377338, 0.01690960000269115];35;5;0.05018620000919327;3.tif;mask.tiff;0.14;left;['right'];0.05859000000054948;0;0.82;2.7588640000030864;85
196;S04;A;pre;2;59.98566342900673;[0.01701010001124814, 0.01640890000271611, 0.01756119998754002, 0.016030500002671033];78;5;0.050000599992927164;8.tif;mask.tiff;-0.14;right;['right'];0.07224509998923168;0;0.757;2.6719387999910396;88
197;S04;A;pre;2;59.98566342900673;[0.017338100005872548, 0.01620260000345297, 0.017136000009486452, 0.016409599978942424];36;5;0.04974819999188185;7.tif;mask.tiff;-0.14;right;['right'];0.27073879999807104;1;1.781;3.8879600999935064;86
198;S04;A;pre;2;59.98566342900673;[0.016350599995348603, 0.016796100011561066, 0.016101099987281486, 0.017257100000279024];75;5;0.05015429999912158;3.tif;mask.tiff;0.14;left;['right'];0.11235989999840967;0;0.738;2.6954030000197235;85
199;S04;A;pre;2;59.98566342900673;[0.016972800018265843, 0.01665169998886995, 0.01637470000423491, 0.01709750000736676];98;5;0.05012390000047162;blank.tiff;mask.tiff;-0.14;a;['left'];0.53111819998594;0;0.603;2.980844800011255;80
200;S04;A;pre;3;59.98566342900673;[0.011145299999043345, 0.016430199990281835, 0.016558000002987683, 0.017187499994179234];59;3;0.05017569998744875;3.tif;mask.tiff;0.14;left;['left'];0.9703169999993406;0;3.455;6.286689300002763;53
201;S04;A;pre;3;59.98566342900673;[0.01637149997986853, 0.016759500023908913, 0.016630400001304224, 0.016625599993858486];46;1;0.050015500019071624;8.tif;mask.tiff;-0.14;right;['right'];0.5152673000120558;1;0.999;3.348751799989259;24
202;S04;A;pre;3;59.98566342900673;[0.016260100004728884, 0.017443699995055795, 0.016010899998946115, 0.017045600019628182];24;4;0.05050020001363009;2.tif;mask.tiff;-0.14;left;['left'];0.3777647000097204;1;1.507;3.7285616000008304;66
203;S04;A;pre;3;59.98566342900673;[0.016356200008885935, 0.016992999997455627, 0.016251299995929003, 0.016870099992956966];14;2;0.050114399986341596;8.tif;mask.tiff;-0.14;right;['right'];0.24111429997719824;1;1.096;3.1912038999726065;40
204;S04;A;pre;3;59.98566342900673;[0.017001800006255507, 0.016813700000056997, 0.016584699973464012, 0.01662980002583936];75;5;0.05002819999936037;3.tif;mask.tiff;0.14;left;['right'];0.4616600000008475;0;1.616;3.9117465000017546;85
205;S04;A;pre;3;59.98566342900673;[0.01619380002375692, 0.0170147999888286, 0.01684309999109246, 0.01660309999715537];87;4;0.050460999977076426;blank.tiff;mask.tiff;0.14;a;['left'];0.49397419998422265;0;2.752;5.093808100005845;65
206;S04;A;pre;3;59.98566342900673;[0.013840400002663955, 0.017221599991898984, 0.016464000014821067, 0.016120799991767853];58;3;0.049806399998487905;3.tif;mask.tiff;-0.14;left;['left'];0.18015899998135865;1;0.75;2.763319000019692;52
207;S04;A;pre;3;59.98566342900673;[0.017059500009054318, 0.016951900004642084, 0.016291000007186085, 0.016825999977299944];25;4;0.05006889998912811;2.tif;mask.tiff;0.14;left;['left'];0.26790779997827485;1;1.046;3.1513203000067733;67
208;S04;A;pre;3;59.98566342900673;[0.016518699994776398, 0.01741470000706613, 0.016301299998303875, 0.01670229999581352];88;5;0.050418300001183525;blank.tiff;mask.tiff;-0.14;a;['right'];0.6981631999951787;0;1.804;4.348028599983081;80
209;S04;A;pre;3;59.98566342900673;[0.017138200026238337, 0.01624119997723028, 0.016638700006296858, 0.01707850000821054];62;3;0.04995839999173768;8.tif;mask.tiff;-0.14;right;['right'];0.2870985999761615;1;1.552;3.6869421000010334;56
210;S04;A;pre;3;59.98566342900673;[0.01737309998134151, 0.016095900005893782, 0.017038200021488592, 0.01648299998487346];23;3;0.04961710001225583;8.tif;mask.tiff;0.14;right;['right'];0.22387409998918884;1;1.539;3.6072064000181854;57
211;S04;A;pre;3;59.98566342900673;[0.014774199982639402, 0.017029300011927262, 0.016000800009351224, 0.01760289998492226];4;1;0.050633000006200746;7.tif;mask.tiff;-0.14;right;['right'];1.0037676999927498;0;1.676;4.520544800005155;22
212;S04;A;pre;3;59.98566342900673;[0.017042200022842735, 0.01617039999109693, 0.01679259998491034, 0.016658400010783225];19;3;0.04962139998679049;3.tif;mask.tiff;0.14;left;['left'];0.44550959998741746;0;3.4;5.694768299988937;53
213;S04;A;pre;3;59.98566342900673;[0.016485400003148243, 0.017012800002703443, 0.01740280000376515, 0.015745699987746775];96;4;0.05016129999421537;blank.tiff;mask.tiff;-0.14;a;['right'];0.22799250000389293;0;0.82;2.8776218999992125;64
214;S04;A;pre;3;59.98566342900673;[0.0165434000082314, 0.017172299994854257, 0.016805099992780015, 0.016280200012261048];27;4;0.05025759999989532;3.tif;mask.tiff;0.14;left;['left'];0.18241229999694042;0;0.89;2.9160260000207927;69
215;S04;A;pre;3;59.98566342900673;[0.016825800004880875, 0.015963599988026544, 0.0168046000180766, 0.016971399978501722];61;3;0.049739599984604865;7.tif;mask.tiff;0.14;right;['right'];0.25849470001412556;1;0.752;2.841679400007706;55
216;S04;A;pre;3;59.98566342900673;[0.016736499994294718, 0.01695380001910962, 0.01697909997892566, 0.016384400019887835];72;5;0.05031730001792312;2.tif;mask.tiff;-0.14;left;['left'];0.25721969999722205;1;0.989;3.0907660000084434;82
217;S04;A;pre;3;59.98566342900673;[0.016719099978217855, 0.016996600024867803, 0.016355699975974858, 0.01770350002334453];8;2;0.05105580002418719;2.tif;mask.tiff;-0.14;left;['left'];0.5472677999932785;0;1.305;3.697265900002094;34
218;S04;A;pre;3;59.98566342900673;[0.016761900013079867, 0.016695699974661693, 0.01701910002157092, 0.01698949999990873];90;1;0.050704299996141344;blank.tiff;mask.tiff;-0.14;a;['right'];0.43531369999982417;0;1.609;3.8865078999951947;16
219;S04;A;pre;3;59.98566342900673;[0.009599200013326481, 0.01674229998025112, 0.016542800003662705, 0.016710600000806153];1;1;0.04999569998471998;2.tif;mask.tiff;0.14;left;['left'];0.4571695000049658;1;2.063;4.357305200013798;19
220;S04;A;pre;3;59.98566342900673;[0.0166488999966532, 0.016657100000884384, 0.016942999995080754, 0.016716400015866384];89;5;0.05031650001183152;blank.tiff;mask.tiff;0.14;a;['right'];0.6048378999985289;0;1.086;3.538487499987241;81
221;S04;A;pre;3;59.98566342900673;[0.004514000000199303, 0.015951599983964115, 0.016848300001583993, 0.016423299995949492];12;2;0.0492231999814976;7.tif;mask.tiff;-0.14;right;['right'];0.7611138999927789;1;0.864;3.4940629999910016;38
222;S04;A;pre;3;59.98566342900673;[0.016487999993842095, 0.01659679997828789, 0.016577000002143905, 0.01714810001431033];64;4;0.050321899994742125;2.tif;mask.tiff;-0.14;left;['left'];0.6239333999983501;1;1.11;3.5737568000040483;66
223;S04;A;pre;3;59.98566342900673;[0.016981399996438995, 0.016049099998781458, 0.017276200000196695, 0.01660149998497218];33;5;0.04992679998395033;2.tif;mask.tiff;0.14;left;['left'];0.16742949999752454;1;0.819;2.817405600013444;83
224;S04;A;pre;3;59.98566342900673;[0.01652149998699315, 0.016848400002345443, 0.016468899993924424, 0.017291100026341155];52;2;0.05060840002261102;7.tif;mask.tiff;-0.14;right;['right'];0.1650204999896232;1;1.488;3.4976795999973547;38
225;S04;A;pre;3;59.98566342900673;[0.015240300010191277, 0.016554799978621304, 0.016907100012758747, 0.016202200000407174];32;5;0.049664099991787225;2.tif;mask.tiff;-0.14;left;['left'];0.163819000008516;1;1.468;3.463974300015252;82
226;S04;A;pre;3;59.98566342900673;[0.017129899992141873, 0.016793699993286282, 0.016246700019109994, 0.016891100007342175];71;4;0.04993150001973845;8.tif;mask.tiff;0.14;right;['right'];0.20519529999000952;1;1.188;3.2384865000203717;73
227;S04;A;pre;3;59.98566342900673;[0.012177500000689179, 0.01669769998989068, 0.017036300007021055, 0.01603219998651184];93;2;0.049766199983423576;blank.tiff;mask.tiff;0.14;a;['right'];0.21971810000832193;0;0.861;2.9528180999914184;33
228;S04;A;pre;3;59.98566342900673;[0.01691979999304749, 0.01598210001247935, 0.01691849998314865, 0.016888500016648322];49;2;0.04978910001227632;2.tif;mask.tiff;0.14;left;['left'];0.21699810001882724;1;0.842;2.9000877999933437;35
229;S04;A;pre;3;59.98566342900673;[0.0037560999917332083, 0.016570700012380257, 0.015947000007145107, 0.017407999985152856];84;3;0.04992570000467822;blank.tiff;mask.tiff;-0.14;a;['right'];0.18138130000443198;0;0.846;2.8981530999881215;48
230;S04;A;pre;3;59.98566342900673;[0.014366400020662695, 0.017380100005539134, 0.016101399989565834, 0.01682650001021102];97;4;0.05030800000531599;blank.tiff;mask.tiff;0.14;a;['right'];0.22633840001071803;0;0.914;2.992425100004766;65
231;S04;A;pre;3;59.98566342900673;[0.017318900005193427, 0.015845000016270205, 0.01678639999590814, 0.01646329998038709];15;2;0.04909469999256544;8.tif;mask.tiff;0.14;right;['right'];0.6153494000027422;1;0.826;3.2823494999902323;41
232;S04;A;pre;3;59.98566342900673;[0.01724730001296848, 0.016391399985877797, 0.016565099998842925, 0.01674370002001524];99;5;0.04970020000473596;blank.tiff;mask.tiff;0.14;a;['right'];1.0540387999790255;0;1.265;4.154048199998215;81
233;S04;A;pre;3;59.98566342900673;[0.016260200005490333, 0.017196000000694767, 0.016148700000485405, 0.017128299979958683];81;1;0.050472999981138855;blank.tiff;mask.tiff;0.14;a;['left'];1.052544999984093;0;0.989;3.885771000001114;17
234;S04;A;pre;3;59.98566342900673;[0.015694200003053993, 0.0172076000017114, 0.016457000019727275, 0.016286400001263246];9;2;0.04995100002270192;2.tif;mask.tiff;0.14;left;['left'];0.3211596999899484;0;2.043;4.204060700023547;35
235;S04;A;pre;3;59.98566342900673;[0.015707300015492365, 0.0178338999976404, 0.015470399986952543, 0.017173000000184402];3;1;0.050477299984777346;3.tif;mask.tiff;0.14;left;['right'];0.41355930001009256;0;1.971;4.230413800018141;21
236;S04;A;pre;3;59.98566342900673;[0.016404699999839067, 0.017275199992582202, 0.016445500019472092, 0.016936499974690378];44;1;0.05065719998674467;7.tif;mask.tiff;-0.14;right;['right'];0.21603859998867847;1;0.932;2.98267019999912;22
237;S04;A;pre;3;59.98566342900673;[0.014659399981610477, 0.016541699995286763, 0.016669000004185364, 0.01656000001821667];22;3;0.049770700017688796;8.tif;mask.tiff;-0.14;right;['right'];0.39850290000322275;1;1.444;3.681045399978757;56
238;S04;A;pre;3;59.98566342900673;[0.01439520000712946, 0.017012399999657646, 0.015986899990821257, 0.016918900015298277];2;1;0.04991820000577718;3.tif;mask.tiff;-0.14;left;['left'];0.5291869000066072;1;2.893;5.263220799999544;20
239;S04;A;pre;3;59.98566342900673;[0.015544800000498071, 0.01733459997922182, 0.01619380002375692, 0.01651549999951385];95;3;0.05004390000249259;blank.tiff;mask.tiff;0.14;a;['right'];0.2843083000043407;0;1.442;3.567473900009645;49
240;S04;A;pre;3;59.98566342900673;[0.01613760000327602, 0.016880499984836206, 0.016648000018903986, 0.016157799982465804];76;5;0.049686299986205995;7.tif;mask.tiff;-0.14;right;['right'];0.1337778999877628;1;5.276;7.250735999987228;86
241;S04;A;pre;3;59.98566342900673;[0.016516600007889792, 0.017375800001900643, 0.015598800004227087, 0.016876499983482063];40;1;0.04985109998960979;2.tif;mask.tiff;-0.14;left;['left'];0.14236269998946227;1;1.678;3.6587790999910794;18
242;S04;A;pre;3;59.98566342900673;[0.017476099979830906, 0.015337300021201372, 0.01678519998677075, 0.016884999989997596];13;2;0.04900749999796972;7.tif;mask.tiff;0.14;right;['right'];2.235181099997135;1;1.965;6.034855500009144;39
243;S04;A;pre;3;59.98566342900673;[0.01691840001149103, 0.016429999988758937, 0.01606660001561977, 0.01694519998272881];56;3;0.049441799987107515;2.tif;mask.tiff;-0.14;left;['left'];0.1172462000104133;1;0.898;2.866766799998004;50
244;S04;A;pre;3;59.98566342900673;[0.017093900009058416, 0.016471599985379726, 0.016827800020109862, 0.017301499989116564];60;3;0.05060089999460615;7.tif;mask.tiff;-0.14;right;['right'];0.22792940001818351;1;0.913;2.9785498999990523;54
245;S04;A;pre;3;59.98566342900673;[0.017344399995636195, 0.016424800007371232, 0.016671699995640665, 0.016329199977917597];83;2;0.049425699980929494;blank.tiff;mask.tiff;0.14;a;['right'];0.21544969998649321;0;0.768;2.8151526000001468;33
246;S04;A;pre;3;59.98566342900673;[0.01588120000087656, 0.016832199995405972, 0.01680890002171509, 0.017049199988832697];65;4;0.05069030000595376;2.tif;mask.tiff;0.14;left;['left'];0.2702482000167947;1;1.119;3.91959790000692;67
247;S04;A;pre;3;59.98566342900673;[0.01657459998386912, 0.016072000027634203, 0.01728129998082295, 0.016438899998320267];98;5;0.04979220000677742;blank.tiff;mask.tiff;-0.14;a;['right'];0.21478849998675287;0;1.132;3.1814754999941215;80
248;S04;A;pre;3;59.98566342900673;[0.016287700011162087, 0.016637499997159466, 0.01659680000739172, 0.01693009998416528];79;5;0.05016439998871647;8.tif;mask.tiff;0.14;right;['right'];0.20415350000257604;1;0.839;2.887716900004307;89
249;S04;A;pre;3;59.98566342900673;[0.016626299999188632, 0.016615000000456348, 0.01659980000113137, 0.016876300011062995];41;1;0.05009110001265071;2.tif;mask.tiff;0.14;left;['left'];0.14632679999340326;1;0.88;2.8625338000128977;19
250;S04;A;pre;3;59.98566342900673;[0.004450899985386059, 0.016818500007502735, 0.016328199999406934, 0.016627400007564574];48;2;0.04977410001447424;2.tif;mask.tiff;-0.14;left;['left'];0.20050149998860434;1;0.869;2.9335271999880206;34
251;S04;A;pre;3;59.98566342900673;[0.013433099986286834, 0.016296700021484867, 0.01660889998311177, 0.01684600001317449];18;3;0.049751600017771125;3.tif;mask.tiff;-0.14;left;['left'];0.16484499999205582;1;1.743;3.7478599999740254;52
252;S04;A;pre;3;59.98566342900673;[0.007016699993982911, 0.016811299981782213, 0.0166429000091739, 0.01652289999765344];80;1;0.04997709998860955;blank.tiff;mask.tiff;-0.14;a;['right'];0.6596848999906797;0;1.017;3.5265981999982614;16
253;S04;A;pre;3;59.98566342900673;[0.016477699973620474, 0.016086600022390485, 0.016489100002218038, 0.01721900000120513];74;5;0.049794700025813654;3.tif;mask.tiff;-0.14;left;['left'];0.2843270000012126;1;1.168;3.285032500018133;84
254;S04;A;pre;3;59.98566342900673;[0.012623699993127957, 0.016817299998365343, 0.016600200004177168, 0.01656139999977313];20;3;0.04997890000231564;7.tif;mask.tiff;-0.14;right;['right'];0.2004951999988407;0;1.007;3.084315999993123;54
255;S04;A;pre;3;59.98566342900673;[0.01691690000006929, 0.016360700014047325, 0.016954599996097386, 0.016274299996439368];47;1;0.04958960000658408;8.tif;mask.tiff;0.14;right;['right'];0.057224599993787706;1;0.805;2.7073522999999113;25
256;S04;A;pre;3;59.98566342900673;[0.016282399999909103, 0.015880099992500618, 0.01640749999205582, 0.016801100020529702];85;3;0.04908870000508614;blank.tiff;mask.tiff;0.14;a;['right'];0.17839069999172352;0;1.079;3.095459500007564;49
257;S04;A;pre;3;59.98566342900673;[0.017354299983708188, 0.016542700002901256, 0.016464000014821067, 0.017042399995261803];70;4;0.05004910001298413;8.tif;mask.tiff;-0.14;right;['right'];0.5363322000193875;1;1.894;4.270055900007719;72
258;S04;A;pre;3;59.98566342900673;[0.008965000015450642, 0.016591299994615838, 0.01683400000911206, 0.01639399997657165];78;5;0.04981929998029955;8.tif;mask.tiff;-0.14;right;['right'];1.937258700025268;1;1.036;4.837236299994402;88
259;S04;A;pre;3;59.98566342900673;[0.017052400013199076, 0.015839100000448525, 0.017169700004160404, 0.01630669998121448];35;5;0.04931549998582341;3.tif;mask.tiff;0.14;left;['right'];0.2645438000035938;1;1.171;3.2803885000175796;85
260;S04;A;pre;3;59.98566342900673;[0.01619819999905303, 0.01703819999238476, 0.016130800009705126, 0.016962299996521324];26;4;0.05013129999861121;3.tif;mask.tiff;-0.14;left;['left'];0.16315249999752268;1;1.028;3.029473800008418;68
261;S04;A;pre;3;59.98566342900673;[0.01673760000267066, 0.01635520000127144, 0.01718510000500828, 0.01616279999143444];86;4;0.04970309999771416;blank.tiff;mask.tiff;-0.14;a;['left'];1.1154304999799933;0;0.814;3.7651201999979094;64
262;S04;A;pre;3;59.98566342900673;[0.0151344999903813, 0.016932200000155717, 0.01619850000133738, 0.016390400007367134];7;1;0.04952110000886023;8.tif;mask.tiff;0.14;right;['right'];0.1936066999915056;1;0.955;2.9935624999925494;25
263;S04;A;pre;3;59.98566342900673;[0.004188100021565333, 0.01681339999777265, 0.016726699977880344, 0.0163141000084579];36;5;0.04985419998411089;7.tif;mask.tiff;-0.14;right;['right'];0.20107790001202375;1;1.591;3.668022599973483;86
264;S04;A;pre;3;59.98566342900673;[0.01686499998322688, 0.016335799999069422, 0.0170339000178501, 0.017266299983020872];55;2;0.050635999999940395;8.tif;mask.tiff;0.14;right;['right'];0.14974950000760145;1;0.897;2.8831705000193324;41
265;S04;A;pre;3;59.98566342900673;[0.016178199992282316, 0.017027399997459725, 0.01648730001761578, 0.01649759997962974];92;2;0.050012299994705245;blank.tiff;mask.tiff;-0.14;a;['left'];0.13721059999079444;0;0.808;2.788069700007327;32
266;S04;A;pre;3;59.98566342900673;[0.01698519999627024, 0.016763899999205023, 0.017184099997393787, 0.01584569999249652];30;4;0.04979369998909533;8.tif;mask.tiff;-0.14;right;['right'];0.27168199999141507;0;1.277;3.3878975000116043;72
267;S04;A;pre;3;59.98566342900673;[0.016216899995924905, 0.016491400019731373, 0.01760589997866191, 0.016058300010627136];66;4;0.05015560000902042;3.tif;mask.tiff;-0.14;left;['left'];0.1372941999870818;1;0.958;2.937029699998675;68
268;S04;A;pre;3;59.98566342900673;[0.016634700004942715, 0.01755550000234507, 0.016330999991623685, 0.016158899990841746];28;4;0.0500453999848105;7.tif;mask.tiff;-0.14;right;['right'];0.26319949998287484;1;1.515;3.6135450000001583;70
269;S04;A;pre;3;59.98566342900673;[0.01511969999410212, 0.016477800003485754, 0.016681000008247793, 0.016445099987322465];16;3;0.04960389999905601;2.tif;mask.tiff;-0.14;left;['left'];0.20530160001362674;1;0.972;3.0218611999880522;50
270;S04;A;pre;3;59.98566342900673;[0.015474499989068136, 0.01634780000313185, 0.016948500007856637, 0.01702799997292459];39;5;0.05032429998391308;8.tif;mask.tiff;0.14;right;['right'];0.6349792000255547;1;0.879;3.3505401000147685;89
271;S04;A;pre;3;59.98566342900673;[0.01681760000064969, 0.01636310000321828, 0.01649490001727827, 0.016447000001790002];63;3;0.04930500002228655;8.tif;mask.tiff;0.14;right;['right'];0.24474540000665002;1;1.751;3.8285598999937065;57
272;S04;A;pre;3;59.98566342900673;[0.01658229998429306, 0.01593640001374297, 0.017306199995800853, 0.016096800012746826];17;3;0.04933940002229065;2.tif;mask.tiff;0.14;left;['left'];0.1899414999934379;1;0.924;2.956779300002381;51
273;S04;A;pre;3;59.98566342900673;[0.01804439999978058, 0.016164000000571832, 0.016825800004880875, 0.01607270000386052];11;2;0.049062500009313226;3.tif;mask.tiff;0.14;left;['left'];0.12523760000476614;1;1.622;3.5915815999906044;37
274;S04;A;pre;3;59.98566342900673;[0.01651369998580776, 0.017255300015676767, 0.01670189999276772, 0.016698499995982274];77;5;0.05065570000442676;7.tif;mask.tiff;0.14;right;['right'];1.6726255000103265;1;1.247;4.75610999998753;87
275;S04;A;pre;3;59.98566342900673;[0.016298200003802776, 0.01695709998602979, 0.01621589998831041, 0.016744700027629733];34;5;0.049917700001969934;3.tif;mask.tiff;-0.14;left;['left'];0.23960560001432896;1;0.975;3.0555918000172824;84
276;S04;A;pre;3;59.98566342900673;[0.016671499994117767, 0.016685400012647733, 0.016135399986524135, 0.016766099986853078];37;5;0.049586899986024946;7.tif;mask.tiff;0.14;right;['right'];0.5820221000176389;1;3.007;5.431536700023571;87
277;S04;A;pre;3;59.98566342900673;[0.01642659999197349, 0.016646899981424212, 0.016913400002522394, 0.016599499998847023];57;3;0.05015979998279363;2.tif;mask.tiff;0.14;left;['left'];0.10313430000678636;1;0.988;2.9532573000178672;51
278;S04;A;pre;3;59.98566342900673;[0.014478500001132488, 0.01669480002601631, 0.01587409997591749, 0.017012900003464893];21;3;0.04958180000539869;7.tif;mask.tiff;0.14;right;['right'];0.12185500000487082;1;0.798;2.7547727999917697;55
279;S04;A;pre;3;59.98566342900673;[0.016639300010865554, 0.015928999986499548, 0.016698699997505173, 0.017015900026308373];45;1;0.049643600010313094;7.tif;mask.tiff;0.14;right;['right'];0.1363388000172563;1;1.333;3.3032984000165015;23
280;S04;A;pre;3;59.98566342900673;[0.01522039997507818, 0.016206100000999868, 0.016998800012515858, 0.016697199986083433];42;1;0.04990209999959916;3.tif;mask.tiff;-0.14;left;['left'];0.22494679997907951;1;0.863;2.92465080000693;20
281;S04;A;pre;3;59.98566342900673;[0.016236199997365475, 0.016823100013425574, 0.016475899989018217, 0.017015499994158745];91;1;0.050314499996602535;blank.tiff;mask.tiff;0.14;a;['left'];0.3000219000095967;0;2.134;4.266286499972921;17
282;S04;A;pre;3;59.98566342900673;[0.0165776000067126, 0.016742599982535467, 0.01631230002385564, 0.017482199997175485];68;4;0.05053710000356659;7.tif;mask.tiff;-0.14;right;['right'];0.41639800000120886;0;1.208;3.466551999998046;70
283;S04;A;pre;3;59.98566342900673;[0.015371199988294393, 0.01664439999149181, 0.016991600015899166, 0.0162856999959331];6;1;0.04992170000332408;8.tif;mask.tiff;-0.14;right;['right'];1.8551051999966148;1;1.063;4.754901099979179;24
284;S04;A;pre;3;59.98566342900673;[0.01675260000047274, 0.016522200021427125, 0.01619389999541454, 0.01675079998676665];29;4;0.049466900003608316;7.tif;mask.tiff;0.14;right;['right'];0.14349429999128915;1;0.929;2.9269012000004295;71
285;S04;A;pre;3;59.98566342900673;[0.016869000013684854, 0.01720589998876676, 0.016020300012314692, 0.017104699974879622];53;2;0.050330899975961074;7.tif;mask.tiff;0.14;right;['right'];0.0959226000122726;1;3.416;5.363227299996652;39
286;S04;A;pre;3;59.98566342900673;[0.01841199997579679, 0.016178700025193393, 0.0158322999777738, 0.017064800020307302];73;5;0.049075800023274496;2.tif;mask.tiff;0.14;left;['left'];0.16956030001165345;1;2.021;4.0367013000068255;83
287;S04;A;pre;3;59.98566342900673;[0.016961899993475527, 0.016189099987968802, 0.01763400001800619, 0.016071499994723126];31;4;0.04989460000069812;8.tif;mask.tiff;0.14;right;['right'];0.1928706000035163;0;0.906;2.942223299993202;73
288;S04;A;pre;3;59.98566342900673;[0.016659500019159168, 0.016171199997188523, 0.016760200000135228, 0.017042499996023253];94;3;0.049973899993347004;blank.tiff;mask.tiff;-0.14;a;['left'];0.5621815999911632;0;0.959;3.3782790999975987;48
289;S04;A;pre;3;59.98566342900673;[0.016710700001567602, 0.016912799997953698, 0.016413600009400398, 0.017113200010498986];54;2;0.05043960001785308;8.tif;mask.tiff;-0.14;right;['right'];0.34280879999278113;0;1.668;3.859692300000461;40
290;S04;A;pre;3;59.98566342900673;[0.01763990000472404, 0.016509199980646372, 0.015909200010355562, 0.01674950000597164];51;2;0.049167899996973574;3.tif;mask.tiff;0.14;left;['left'];0.08338719999301247;1;0.839;2.766308599995682;37
291;S04;A;pre;3;59.98566342900673;[0.014341100002638996, 0.015751900005852804, 0.01708310001413338, 0.016646399977616966];50;2;0.04948139999760315;3.tif;mask.tiff;-0.14;left;['left'];0.10071040000184439;0;1.044;2.9836845999816433;36
292;S04;A;pre;3;59.98566342900673;[0.01633040001615882, 0.017042399995261803, 0.01631549999001436, 0.01663840000401251];10;2;0.04999629998928867;3.tif;mask.tiff;-0.14;left;['left'];0.47780360002070665;1;0.934;3.244542000000365;36
293;S04;A;pre;3;59.98566342900673;[0.016840800002682954, 0.016326499986462295, 0.017431800020858645, 0.016169099981198087];38;5;0.04992739998851903;8.tif;mask.tiff;-0.14;right;['right'];0.19634640001459047;1;1.134;3.179356899985578;88
294;S04;A;pre;3;59.98566342900673;[0.017234300001291558, 0.01638810001895763, 0.016279499977827072, 0.017409300024155527];82;2;0.05007690002094023;blank.tiff;mask.tiff;-0.14;a;['left'];0.4183173000055831;0;3.004;5.268667099997401;32
295;S04;A;pre;3;59.98566342900673;[0.01677739998558536, 0.016679000022122636, 0.016226899984758347, 0.016884000011486933];69;4;0.049789900018367916;7.tif;mask.tiff;0.14;right;['right'];2.2592670999874827;1;4.969;9.07524080001167;71
296;S04;A;pre;3;59.98566342900673;[0.016643599985400215, 0.01674500000081025, 0.01699259999440983, 0.016504400002304465];43;1;0.050241999997524545;3.tif;mask.tiff;0.14;left;['left'];0.1319282999902498;1;1.362;3.3320100999844726;21
297;S04;A;pre;3;59.98566342900673;[0.015166199998930097, 0.016029899998102337, 0.017621099977986887, 0.016126300004543737];67;4;0.04977729998063296;3.tif;mask.tiff;0.14;left;['left'];0.0980934000108391;1;0.775;2.713298099988606;69
298;S04;A;pre;3;59.98566342900673;[0.016553299996303394, 0.01615989999845624, 0.01704590002191253, 0.01661049999529496];5;1;0.04981630001566373;7.tif;mask.tiff;0.14;right;['right'];0.2779353999940213;1;1.582;3.6949047000089195;23
299;S04;A;pre;3;59.98566342900673;[0.016713600023649633, 0.016520099976332858, 0.016450600000098348, 0.01714199999696575];0;1;0.05011269997339696;2.tif;mask.tiff;-0.14;left;['left'];0.20517370000015944;1;1.74;3.7885324000089895;18
300;S04;A;pre;4;59.98566342900673;[0.015788500022608787, 0.016708999988622963, 0.016590200015343726, 0.017250599979888648];87;4;0.05054979998385534;blank.tiff;mask.tiff;0.14;a;['left'];0.1680632999923546;0;1.173;3.18424239999149;65
301;S04;A;pre;4;59.98566342900673;[0.0166488999966532, 0.016584099997999147, 0.01682210000581108, 0.016655199986416847];8;2;0.05006139999022707;2.tif;mask.tiff;-0.14;left;['left'];0.16959279999719;1;0.942;2.9694215999916196;34
302;S04;A;pre;4;59.98566342900673;[0.01666069999919273, 0.016570700012380257, 0.017172899999422953, 0.016917700006160885];39;5;0.050661300017964095;8.tif;mask.tiff;0.14;right;['right'];0.2008436000032816;1;3.688;5.733797299995786;89
303;S04;A;pre;4;59.98566342900673;[0.016538800002308562, 0.01729610000620596, 0.01607089999015443, 0.017101100005675107];51;2;0.0504681000020355;3.tif;mask.tiff;0.14;left;['right'];0.12938519997987896;0;1.166;3.1285929000005126;37
304;S04;A;pre;4;59.98566342900673;[0.013905600004363805, 0.015889899979811162, 0.01688150002155453, 0.016534199996385723];24;4;0.049305599997751415;2.tif;mask.tiff;-0.14;left;['left'];0.3801588000205811;1;0.815;3.0301744999887887;66
305;S04;A;pre;4;59.98566342900673;[0.015754399995785207, 0.017114699992816895, 0.016450800001621246, 0.017413800000213087];44;1;0.05097929999465123;7.tif;mask.tiff;-0.14;right;['right'];0.8118135000113398;1;1.837;4.495164099993417;22
306;S04;A;pre;4;59.98566342900673;[0.015429999999469146, 0.017399300006218255, 0.016247699997620657, 0.016470700007630512];14;2;0.050117700011469424;8.tif;mask.tiff;-0.14;right;['right'];0.10630959999980405;0;1.248;3.1891630000027362;40
307;S04;A;pre;4;59.98566342900673;[0.014900200010742992, 0.016793199989479035, 0.017144699988421053, 0.016318900015903637];37;5;0.050256799993803725;7.tif;mask.tiff;0.14;right;['right'];0.2369802000175696;1;2.661;4.769872499979101;87
308;S04;A;pre;4;59.98566342900673;[0.0163170000014361, 0.01712609999231063, 0.016071299993200228, 0.017098500014981255];89;5;0.05029590000049211;blank.tiff;mask.tiff;0.14;a;['right'];0.5293674000131432;0;1.411;3.7794150999980047;81
309;S04;A;pre;4;59.98566342900673;[0.016526199993677437, 0.016553199995541945, 0.01679250001325272, 0.01660259999334812];15;2;0.04994830000214279;8.tif;mask.tiff;0.14;right;['right'];0.10331099998438731;1;2.987;4.936652199976379;41
310;S04;A;pre;4;59.98566342900673;[0.016764700005296618, 0.016366299998480827, 0.01660440000705421, 0.01669759998912923];29;4;0.04966829999466427;7.tif;mask.tiff;0.14;right;['right'];0.6238409999932628;1;8.091;10.556680899986532;71
311;S04;A;pre;4;59.98566342900673;[0.01547400001436472, 0.015838999999687076, 0.01685049998923205, 0.016970900003798306];17;3;0.04966039999271743;2.tif;mask.tiff;0.14;left;['left'];0.09594580001430586;1;0.967;2.9120289999991655;51
312;S04;A;pre;4;59.98566342900673;[0.015031499991891906, 0.017144900019047782, 0.016720399988116696, 0.016354899998987094];63;3;0.05022020000615157;8.tif;mask.tiff;0.14;right;['right'];0.07920919999014586;1;2.797;4.728385399997933;57
313;S04;A;pre;4;59.98566342900673;[0.012268099992070347, 0.016601700015598908, 0.01696419998188503, 0.01642339999671094];42;1;0.04998929999419488;3.tif;mask.tiff;-0.14;left;['right'];3.221589499997208;1;4.27;9.338212699978612;20
314;S04;A;pre;4;59.98566342900673;[0.016772400005720556, 0.016154599987203255, 0.017485100019257516, 0.016310499981045723];9;2;0.049950199987506494;2.tif;mask.tiff;0.14;left;['left'];0.09360829999786802;1;1.44;3.376824899984058;35
315;S04;A;pre;4;59.98566342900673;[0.01584700000239536, 0.016332500003045425, 0.016726499976357445, 0.01636420001159422];3;1;0.04942319999099709;3.tif;mask.tiff;0.14;left;['left'];0.6045255999779329;0;0.731;3.1712797999789473;21
316;S04;A;pre;4;59.98566342900673;[0.013811300013912842, 0.017212999984622, 0.01679090000106953, 0.016600700007984415];32;5;0.05060459999367595;2.tif;mask.tiff;-0.14;left;['left'];0.6642121000040788;1;6.105;8.613573000009637;82
317;S04;A;pre;4;59.98566342900673;[0.01703550000092946, 0.016258399991784245, 0.01669019999098964, 0.017330900009255856];1;1;0.05027949999202974;2.tif;mask.tiff;0.14;left;['left'];0.22115920000942424;1;2.006;4.070955400005914;19
318;S04;A;pre;4;59.98566342900673;[0.016409100004239008, 0.017079899989767, 0.016275900008622557, 0.016867800004547462];88;5;0.05022360000293702;blank.tiff;mask.tiff;-0.14;a;['right'];0.1792909000068903;0;0.833;2.8466078999917954;80
319;S04;A;pre;4;59.98566342900673;[0.01732720001018606, 0.016330700018443167, 0.016179799975361675, 0.016606799996225163];86;4;0.049117299990030006;blank.tiff;mask.tiff;-0.14;a;['left'];2.635065999988001;0;8.65;13.118120400002226;64
320;S04;A;pre;4;59.98566342900673;[0.016230600012931973, 0.01689900000928901, 0.015702699980465695, 0.017417099996237084];2;1;0.05001879998599179;3.tif;mask.tiff;-0.14;left;['left'];0.14137060000211932;1;0.943;2.9245981000130996;20
321;S04;A;pre;4;59.98566342900673;[0.016298800008371472, 0.015711199986981228, 0.017204100004164502, 0.016440399980638176];25;4;0.049355699971783906;2.tif;mask.tiff;0.14;left;['left'];0.6841717999777757;0;4.887;7.417331200005719;67
322;S04;A;pre;4;59.98566342900673;[0.016900999995414168, 0.016403299989178777, 0.016652199992677197, 0.016841000004205853];50;2;0.049896499986061826;3.tif;mask.tiff;-0.14;left;['left'];0.741334199992707;1;1.309;3.908390299999155;36
323;S04;A;pre;4;59.98566342900673;[0.016781699989223853, 0.0166087000106927, 0.0170429999998305, 0.016463900014059618];98;5;0.05011560002458282;blank.tiff;mask.tiff;-0.14;a;['left'];0.7482070999976713;0;1.118;3.714576099999249;80
324;S04;A;pre;4;59.98566342900673;[0.01681490000919439, 0.015564400004222989, 0.01743709997390397, 0.016043100011302158];40;1;0.049044599989429116;2.tif;mask.tiff;-0.14;left;['left'];0.15993379999417812;1;0.727;2.725969500024803;18
325;S04;A;pre;4;59.98566342900673;[0.01648310001473874, 0.017154700006358325, 0.016249499982222915, 0.01661170000443235];91;1;0.05001589999301359;blank.tiff;mask.tiff;0.14;a;['right'];0.3892993000044953;0;0.879;3.106132399989292;17
326;S04;A;pre;4;59.98566342900673;[0.01633919999585487, 0.016977999999653548, 0.016790099994977936, 0.016129199997521937];57;3;0.04989729999215342;2.tif;mask.tiff;0.14;left;['left'];0.29633990000002086;1;1.975;4.113531300012255;51
327;S04;A;pre;4;59.98566342900673;[0.016569100000197068, 0.01721170000382699, 0.01573590000043623, 0.017988700012210757];83;2;0.05093630001647398;blank.tiff;mask.tiff;0.14;a;['right'];0.5687493000004906;0;1.115;3.518896900000982;33
328;S04;A;pre;4;59.98566342900673;[0.012246300000697374, 0.01692880000337027, 0.016596600005868822, 0.01655679999385029];80;1;0.05008220000308938;blank.tiff;mask.tiff;-0.14;a;['left'];0.21108150001964532;0;0.981;3.0274162999994587;16
329;S04;A;pre;4;59.98566342900673;[0.01641330000711605, 0.017029999988153577, 0.01649889998952858, 0.016706199996406212];41;1;0.05023509997408837;2.tif;mask.tiff;0.14;left;['left'];0.19425430000410415;1;1.063;3.0944140999927185;19
330;S04;A;pre;4;59.98566342900673;[0.017000899999402463, 0.01646660000551492, 0.016603800002485514, 0.01738939998904243];27;4;0.050459799997042865;3.tif;mask.tiff;0.14;left;['left'];3.2246028000081424;1;3.848;8.907317100005457;69
331;S04;A;pre;4;59.98566342900673;[0.014431899995543063, 0.01674829999683425, 0.0161153000080958, 0.017163799988338724];36;5;0.05002739999326877;7.tif;mask.tiff;-0.14;right;['right'];0.5888451999926474;1;0.92;3.355455199984135;86
332;S04;A;pre;4;59.98566342900673;[0.016486400010762736, 0.016535599977942184, 0.017073299997719005, 0.01678500001435168];52;2;0.05039389999001287;7.tif;mask.tiff;-0.14;right;['right'];0.27628930000355467;1;1.067;3.1763310999958776;38
333;S04;A;pre;4;59.98566342900673;[0.016693999990820885, 0.016544400015845895, 0.01640560000669211, 0.016423299995949492];7;1;0.0493733000184875;8.tif;mask.tiff;0.14;right;['right'];0.19282070000190288;1;1.398;3.425787100015441;25
334;S04;A;pre;4;59.98566342900673;[0.012360499997157604, 0.016815400013001636, 0.01714489998994395, 0.016018800000892952];28;4;0.04997910000383854;7.tif;mask.tiff;-0.14;right;['right'];0.19509960000868887;1;0.923;2.978667499992298;70
335;S04;A;pre;4;59.98566342900673;[0.017045499989762902, 0.01604109999607317, 0.017746299999998882, 0.0158549000043422];26;4;0.04964230000041425;3.tif;mask.tiff;-0.14;left;['left'];0.7600892999907956;1;1.079;3.6775715999829117;68
336;S04;A;pre;4;59.98566342900673;[0.016945699986536056, 0.01661910000257194, 0.01704289999906905, 0.016216699994402006];0;1;0.049878699996043;2.tif;mask.tiff;-0.14;left;['left'];0.13939179998124018;1;1.384;3.355996400001459;18
337;S04;A;pre;4;59.98566342900673;[0.016618499998003244, 0.016150400013430044, 0.016698899999028072, 0.016984199988655746];33;5;0.04983350000111386;2.tif;mask.tiff;0.14;left;['left'];0.10589749997598119;1;0.783;2.721911500004353;83
338;S04;A;pre;4;59.98566342900673;[0.01591970000299625, 0.016651200014166534, 0.016667299991240725, 0.016585500008659437];69;4;0.049904000014066696;7.tif;mask.tiff;0.14;right;['right'];0.17463490000227466;1;1.355;3.3739469000138342;71
339;S04;A;pre;4;59.98566342900673;[0.016722200001822785, 0.01689769999939017, 0.017105599981732666, 0.016671299992594868];92;2;0.050674599973717704;blank.tiff;mask.tiff;-0.14;a;['right'];1.3567788999935146;0;7.068;10.273320100008277;32
340;S04;A;pre;4;59.98566342900673;[0.016867099999217317, 0.0165555999847129, 0.016318100009812042, 0.016640399990137666];66;4;0.04951409998466261;3.tif;mask.tiff;-0.14;left;['left'];0.28359269999782555;1;3.316;5.433700800000224;68
341;S04;A;pre;4;59.98566342900673;[0.016228899999987334, 0.016215300012845546, 0.01662039998336695, 0.016730800009099767];59;3;0.049566500005312264;3.tif;mask.tiff;0.14;left;['left'];0.1281695000070613;1;5.587;7.561442000005627;53
342;S04;A;pre;4;59.98566342900673;[0.016330000013113022, 0.016452499985462055, 0.01644860001397319, 0.016703999979654327];23;3;0.04960509997908957;8.tif;mask.tiff;0.14;right;['right'];1.6705011999874841;1;2.747;6.270770300005097;57
343;S04;A;pre;4;59.98566342900673;[0.01651529999799095, 0.017162400006782264, 0.016571300016948953, 0.01680749998195097];84;3;0.050541200005682185;blank.tiff;mask.tiff;-0.14;a;['left'];2.1739295000152197;0;1.343;5.357255399983842;48
344;S04;A;pre;4;59.98566342900673;[0.01727549999486655, 0.016081999987363815, 0.016838100011227652, 0.016682199988281354];11;2;0.04960229998687282;3.tif;mask.tiff;0.14;left;['right'];0.18560040000011213;0;0.947;2.968554499995662;37
345;S04;A;pre;4;59.98566342900673;[0.017009499977575615, 0.016200200014282018, 0.016517399984877557, 0.017301900021266192];31;4;0.05001950002042577;8.tif;mask.tiff;0.14;right;['right'];0.20086609999998473;1;0.85;2.8841232000268064;73
346;S04;A;pre;4;59.98566342900673;[0.016935699997702613, 0.016805499995825812, 0.01594050001585856, 0.01699539998662658];38;5;0.04974139999831095;8.tif;mask.tiff;-0.14;right;['right'];0.15303720001247711;0;1.175;3.1697660999780055;88
347;S04;A;pre;4;59.98566342900673;[0.01566959999036044, 0.016606500023044646, 0.01661309998598881, 0.017141699994681403];45;1;0.05036130000371486;7.tif;mask.tiff;0.14;right;['right'];0.33543390000704676;1;1.326;3.5013964000099804;23
348;S04;A;pre;4;59.98566342900673;[0.015437199996085837, 0.017547100025694817, 0.016462999978102744, 0.01681920001283288];13;2;0.05082930001663044;7.tif;mask.tiff;0.14;right;['right'];0.13852849998511374;1;0.797;2.771756900008768;39
349;S04;A;pre;4;59.98566342900673;[0.01622200000565499, 0.016732899995986372, 0.01715870000771247, 0.016372799989767373];94;3;0.05026439999346621;blank.tiff;mask.tiff;-0.14;a;['right'];2.935847599990666;0;0.947;5.718880499975057;48
350;S04;A;pre;4;59.98566342900673;[0.016510199988260865, 0.016849100007675588, 0.01722060001338832, 0.01617769998847507];16;3;0.05024740000953898;2.tif;mask.tiff;-0.14;left;['left'];0.08046059997286648;1;1.06;2.981018899998162;50
351;S04;A;pre;4;59.98566342900673;[0.01614340001833625, 0.017357599979732186, 0.017025600012857467, 0.016730800009099767];4;1;0.05111400000168942;7.tif;mask.tiff;-0.14;right;['right'];0.12713139998959377;1;0.952;2.927384799986612;22
352;S04;A;pre;4;59.98566342900673;[0.016575699992245063, 0.017239200009498745, 0.016134000004967675, 0.016662999987602234];72;5;0.050036200002068654;2.tif;mask.tiff;-0.14;left;['left'];0.11675109999487177;1;3.37;5.332903400005307;82
353;S04;A;pre;4;59.98566342900673;[0.016669900011038408, 0.017127699975389987, 0.017146099999081343, 0.016212400019867346];70;4;0.050486199994338676;8.tif;mask.tiff;-0.14;right;['right'];0.15904710002359934;1;1.408;3.4086424999986775;72
354;S04;A;pre;4;59.98566342900673;[0.01687230000970885, 0.01669459999538958, 0.01674969997839071, 0.016443500004243106];5;1;0.049887799978023395;7.tif;mask.tiff;0.14;right;['right'];0.16186020002351142;1;1.243;3.2449635000084527;23
355;S04;A;pre;4;59.98566342900673;[0.016814100003102794, 0.01672859999234788, 0.016737199999624863, 0.01674809999531135];99;5;0.050213899987284094;blank.tiff;mask.tiff;0.14;a;['left'];1.110720600001514;0;0.898;3.8438821000163443;81
356;S04;A;pre;4;59.98566342900673;[0.017116700008045882, 0.01656409999122843, 0.0163511999999173, 0.016782799997599795];95;3;0.049698099988745525;blank.tiff;mask.tiff;0.14;a;['right'];0.22581340000033379;0;1.241;3.3088858000119217;49
357;S04;A;pre;4;59.98566342900673;[0.017289999988861382, 0.016593000007560477, 0.016651300014927983, 0.0161243999900762];67;4;0.04936870001256466;3.tif;mask.tiff;0.14;left;['right'];0.13732660000096075;0;0.765;2.738198100007139;69
358;S04;A;pre;4;59.98566342900673;[0.016427100024884567, 0.016316499997628853, 0.016931399994064122, 0.017392100009601563];68;4;0.05064000000129454;7.tif;mask.tiff;-0.14;right;['right'];0.13136369999847375;0;0.839;2.81484370000544;70
359;S04;A;pre;4;59.98566342900673;[0.016324800002621487, 0.016916499997023493, 0.016469099995447323, 0.01667080001789145];35;5;0.05005640001036227;3.tif;mask.tiff;0.14;left;['left'];0.30837839999003336;0;0.882;3.024484099994879;85
360;S04;A;pre;4;59.98566342900673;[0.016587699996307492, 0.016952000005403534, 0.016135399986524135, 0.017121000011684373];85;3;0.05020840000361204;blank.tiff;mask.tiff;0.14;a;['right'];0.1611931000079494;0;0.77;2.777355099999113;49
361;S04;A;pre;4;59.98566342900673;[0.014307599980384111, 0.016603500000201166, 0.017518800013931468, 0.015750199992908165];60;3;0.0498725000070408;7.tif;mask.tiff;-0.14;right;['right'];0.08158450000337325;1;0.679;2.631528600002639;54
362;S04;A;pre;4;59.98566342900673;[0.017066200001863763, 0.01642379999975674, 0.01615400001173839, 0.01677009998820722];77;5;0.04934789999970235;7.tif;mask.tiff;0.14;right;['right'];0.1646504999953322;1;0.939;2.9648920000181533;87
363;S04;A;pre;4;59.98566342900673;[0.004805200005648658, 0.016190399997867644, 0.016560799995204434, 0.016173699987120926];65;4;0.048924899980193004;2.tif;mask.tiff;0.14;left;['left'];0.1646881999913603;1;1.044;3.0650538000045344;67
364;S04;A;pre;4;59.98566342900673;[0.006702399987261742, 0.01634349999949336, 0.016732500022044405, 0.01673479998135008];76;5;0.049810800002887845;7.tif;mask.tiff;-0.14;right;['right'];0.5652970999944955;1;0.993;3.431627899990417;86
365;S04;A;pre;4;59.98566342900673;[0.016936799976974726, 0.015791700017871335, 0.017293599987169728, 0.01605910001671873];74;5;0.04914440002175979;3.tif;mask.tiff;-0.14;left;['left'];0.10335910000139847;1;0.982;2.936495100002503;84
366;S04;A;pre;4;59.98566342900673;[0.01671699999133125, 0.01729039999190718, 0.0158489000168629, 0.01640860000043176];22;3;0.04954790000920184;8.tif;mask.tiff;-0.14;right;['right'];0.18922200001543388;1;1.559;3.5892069000110496;56
367;S04;A;pre;4;59.98566342900673;[0.016723600012483075, 0.016832799999974668, 0.01725169998826459, 0.016041800001403317];90;1;0.050126299989642575;blank.tiff;mask.tiff;-0.14;a;['right'];0.2834625999967102;0;1.283;3.4164200000232086;16
368;S04;A;pre;4;59.98566342900673;[0.01679980001063086, 0.016461499995784834, 0.01686940001673065, 0.016842499986523762];43;1;0.05017339999903925;3.tif;mask.tiff;0.14;left;['right'];0.18594880000455305;0;0.95;2.9688129000132903;21
369;S04;A;pre;4;59.98566342900673;[0.016803499980596825, 0.01717500001541339, 0.016165099979843944, 0.016455700009828433];79;5;0.049795800005085766;8.tif;mask.tiff;0.14;right;['right'];0.13505950002581812;1;1.088;3.068827599985525;89
370;S04;A;pre;4;59.98566342900673;[0.016947099997196347, 0.016895699984161183, 0.016670200013322756, 0.017301299987593666];73;5;0.050867199985077605;2.tif;mask.tiff;0.14;left;['left'];0.11016159999417141;1;0.764;2.7106984999845736;83
371;S04;A;pre;4;59.98566342900673;[0.016102399997180328, 0.016912999999476597, 0.016293900000164285, 0.016626099997665733];46;1;0.049832999997306615;8.tif;mask.tiff;-0.14;right;['right'];0.633075399993686;0;2.425;4.8991611000092234;24
372;S04;A;pre;4;59.98566342900673;[0.015409799991175532, 0.016550200001802295, 0.016895100008696318, 0.01707569998688996];20;3;0.05052099999738857;7.tif;mask.tiff;-0.14;right;['right'];0.35351069999160245;1;0.932;3.119371400011005;54
373;S04;A;pre;4;59.98566342900673;[0.014790600020205602, 0.017047599976649508, 0.016718800005037338, 0.016832099994644523];6;1;0.05059849997633137;8.tif;mask.tiff;-0.14;right;['right'];0.16514480000478216;1;0.97;2.9655004999949597;24
374;S04;A;pre;4;59.98566342900673;[0.01634490001015365, 0.01673899998422712, 0.016573900007642806, 0.016522499994607642];54;2;0.04983539998647757;8.tif;mask.tiff;-0.14;right;['right'];0.12007370000355877;1;1.172;3.1364114999887533;40
375;S04;A;pre;4;59.98566342900673;[0.01625039998907596, 0.016208199987886474, 0.017380000004777685, 0.01593190000858158];55;2;0.04952010000124574;8.tif;mask.tiff;0.14;right;['right'];0.11110800001188181;1;3.163;5.11054629998398;41
376;S04;A;pre;4;59.98566342900673;[0.01368989999173209, 0.017049099988071248, 0.01673610002035275, 0.016501399979460984];49;2;0.05028659998788498;2.tif;mask.tiff;0.14;left;['left'];0.09145680000074208;1;1.431;3.358690099994419;35
377;S04;A;pre;4;59.98566342900673;[0.01651379998656921, 0.016477700002724305, 0.01716570000280626, 0.01644149998901412];61;3;0.050084899994544685;7.tif;mask.tiff;0.14;right;['right'];0.12557440000819042;1;0.833;2.7925081999856047;55
378;S04;A;pre;4;59.98566342900673;[0.01752729999134317, 0.017743200005497783, 0.01589770001010038, 0.01710519997868687];30;4;0.05074609999428503;8.tif;mask.tiff;-0.14;right;['left'];0.18396470000152476;0;1.221;3.282871100003831;72
379;S04;A;pre;4;59.98566342900673;[0.01723420000053011, 0.01649030001135543, 0.0166177999926731, 0.016973999998299405];75;5;0.050082100002327934;3.tif;mask.tiff;0.14;left;['right'];1.2319648999837227;0;1.408;4.481171699997503;85
380;S04;A;pre;4;59.98566342900673;[0.01581320000695996, 0.017050900001777336, 0.01614059999701567, 0.016964700014796108];34;5;0.050156200013589114;3.tif;mask.tiff;-0.14;left;['left'];0.15562070001033135;1;0.898;2.8884355000045616;84
381;S04;A;pre;4;59.98566342900673;[0.016751499992096797, 0.016853599983733147, 0.01637750002555549, 0.016424499975983053];47;1;0.04965559998527169;8.tif;mask.tiff;0.14;right;['right'];0.12260269999387674;1;0.908;2.8727394999878015;25
382;S04;A;pre;4;59.98566342900673;[0.014813599991612136, 0.017197799985297024, 0.0170992000203114, 0.0165156000002753];18;3;0.050812600005883723;3.tif;mask.tiff;-0.14;left;['left'];0.2303494999941904;1;1.163;3.230024599994067;52
383;S04;A;pre;4;59.98566342900673;[0.017670500004896894, 0.015501100016990677, 0.017175499990116805, 0.016916599997784942];56;3;0.049593200004892424;2.tif;mask.tiff;-0.14;left;['left'];0.14252009999472648;1;1.191;3.1757169000047725;50
384;S04;A;pre;4;59.98566342900673;[0.016311899991706014, 0.015615700016496703, 0.01737169999978505, 0.01660899998387322];12;2;0.04959640000015497;7.tif;mask.tiff;-0.14;right;['right'];0.24908910001977347;1;0.809;2.898233899992192;38
385;S04;A;pre;4;59.98566342900673;[0.016394499980378896, 0.01728440000442788, 0.01619980001123622, 0.017148899991298094];96;4;0.050633100006962195;blank.tiff;mask.tiff;-0.14;a;['left'];0.2779703999985941;0;0.85;2.9606980999815278;64
386;S04;A;pre;4;59.98566342900673;[0.014584299991838634, 0.016187700006412342, 0.016434599994681776, 0.016332200000761077];64;4;0.048954500001855195;2.tif;mask.tiff;-0.14;left;['left'];0.26653530000476167;1;1.043;3.1486573000147473;66
387;S04;A;pre;4;59.98566342900673;[0.01663860000553541, 0.016943299997365102, 0.01647559998673387, 0.016584299999522045];21;3;0.050003199983621016;7.tif;mask.tiff;0.14;right;['right'];0.299942599987844;1;1.29;3.4333546000125352;55
388;S04;A;pre;4;59.98566342900673;[0.012970199983101338, 0.01688860001740977, 0.01686229999177158, 0.01637769999797456];53;2;0.05012860000715591;7.tif;mask.tiff;0.14;right;['right'];0.12461400000029244;1;0.862;2.8244034000090323;39
389;S04;A;pre;4;59.98566342900673;[0.01676420000148937, 0.016647699987515807, 0.016332500003045425, 0.016816800023661926];10;2;0.04979700001422316;3.tif;mask.tiff;-0.14;left;['left'];0.1263150000013411;1;3.07;5.043305400002282;36
390;S04;A;pre;4;59.98566342900673;[0.0169181999808643, 0.01626070000929758, 0.01735430001281202, 0.016042399976868182];82;2;0.04965739999897778;blank.tiff;mask.tiff;-0.14;a;['left'];0.1950797000026796;0;1.183;3.211865899997065;32
391;S04;A;pre;4;59.98566342900673;[0.01670349997584708, 0.01649340000585653, 0.017793800012441352, 0.015784599992912263];58;3;0.050071800011210144;3.tif;mask.tiff;-0.14;left;['left'];0.22398020001128316;1;3.957;6.0229960000142455;52
392;S04;A;pre;4;59.98566342900673;[0.013643299986142665, 0.0165493999957107, 0.01690529999905266, 0.01681450000614859];81;1;0.05026920000091195;blank.tiff;mask.tiff;0.14;a;['right'];0.1733308999973815;0;0.968;2.9902786999882665;17
393;S04;A;pre;4;59.98566342900673;[0.016223999991780147, 0.0166087000106927, 0.01662660000147298, 0.016589799983194098];78;5;0.04982509999535978;8.tif;mask.tiff;-0.14;right;['right'];0.2175005000026431;1;0.784;2.834551799984183;88
394;S04;A;pre;4;59.98566342900673;[0.016686500021023676, 0.016206300002522767, 0.016977399995084852, 0.016818400006741285];97;4;0.050002100004348904;blank.tiff;mask.tiff;0.14;a;['right'];0.27910260000498965;0;1.441;3.5624056000087876;65
395;S04;A;pre;4;59.98566342900673;[0.016359500004909933, 0.016278099996270612, 0.017267099989112467, 0.016267700004391372];48;2;0.04981289998977445;2.tif;mask.tiff;-0.14;left;['left'];0.20538589998614043;1;0.794;2.8383651000040118;34
396;S04;A;pre;4;59.98566342900673;[0.01689189998432994, 0.01619530000607483, 0.016820000018924475, 0.016380999993998557];93;2;0.04939630001899786;blank.tiff;mask.tiff;0.14;a;['left'];2.1920522000000346;0;1.317;5.341914399992675;33
397;S04;A;pre;4;59.98566342900673;[0.013478899985784665, 0.01737169999978505, 0.015678000025218353, 0.017204899981152266];62;3;0.05025460000615567;8.tif;mask.tiff;-0.14;right;['right'];0.23096310000983067;1;0.932;2.9977885000116657;56
398;S04;A;pre;4;59.98566342900673;[0.016591499996138737, 0.01667549999547191, 0.016462700004922226, 0.016823000012664124];71;4;0.04996120001305826;8.tif;mask.tiff;0.14;right;['right'];0.17610339997918345;1;1.28;3.293506400019396;73
399;S04;A;pre;4;59.98566342900673;[0.016389900003559887, 0.01644710000255145, 0.016692799981683493, 0.016959400003543124];19;3;0.05009929998777807;3.tif;mask.tiff;0.14;left;['right'];0.24187050000182353;1;0.757;2.8919741999998223;53
