;subject;stim;session;block;frame_rate;trial_nb;target;cor_ans;obj_rating;obj_RT;subj_rating;subj_RT
0;S05;A;pre;1;60.058797535060506;98;noise;;['right'];0.4711931000929326;0;4.637
1;S05;A;pre;1;60.058797535060506;76;e;left;['left'];0.4225734999636188;1;1.338
2;S05;A;pre;1;60.058797535060506;65;e;left;['right'];0.2659059000434354;1;0.862
3;S05;A;pre;1;60.058797535060506;91;noise;;['left'];0.4865803000284359;0;0.765
4;S05;A;pre;1;60.058797535060506;85;noise;;['right'];0.40930450009182096;0;0.815
5;S05;A;pre;1;60.058797535060506;70;e;left;['right'];0.4283300000242889;1;0.685
6;S05;A;pre;1;60.058797535060506;32;a;right;['right'];0.40164189995266497;1;1.424
7;S05;A;pre;1;60.058797535060506;93;noise;;['right'];0.39192320010624826;0;0.661
8;S05;A;pre;1;60.058797535060506;15;a;right;['right'];0.348847399931401;1;1.04
9;S05;A;pre;1;60.058797535060506;14;a;right;['right'];1.0080565999960527;1;1.138
10;S05;A;pre;1;60.058797535060506;97;noise;;['left'];1.2712611999595538;0;0.772
11;S05;A;pre;1;60.058797535060506;56;e;left;['right'];0.37598279991652817;1;0.664
12;S05;A;pre;1;60.058797535060506;45;e;left;['right'];0.6121657999465242;1;1.709
13;S05;A;pre;1;60.058797535060506;6;a;right;['right'];0.33711969992145896;1;0.871
14;S05;A;pre;1;60.058797535060506;84;noise;;['left'];0.29278560006059706;0;1.106
15;S05;A;pre;1;60.058797535060506;50;e;left;['right'];0.3213986000046134;1;0.805
16;S05;A;pre;1;60.058797535060506;86;noise;;['right'];0.19061210006475449;0;0.724
17;S05;A;pre;1;60.058797535060506;83;noise;;['right'];0.3461680000182241;0;1.037
18;S05;A;pre;1;60.058797535060506;90;noise;;['left'];0.24124719994142652;0;1.708
19;S05;A;pre;1;60.058797535060506;37;a;right;['right'];0.17799370002467185;1;0.704
20;S05;A;pre;1;60.058797535060506;47;e;left;['right'];0.7155439999187365;1;0.934
21;S05;A;pre;1;60.058797535060506;26;a;right;['right'];0.17232070001773536;1;0.847
22;S05;A;pre;1;60.058797535060506;29;a;right;['right'];0.18460909998975694;1;0.717
23;S05;A;pre;1;60.058797535060506;96;noise;;['right'];0.19660279992967844;0;0.72
24;S05;A;pre;1;60.058797535060506;64;e;left;['right'];0.22840440005529672;1;0.628
25;S05;A;pre;1;60.058797535060506;59;e;left;['right'];0.17288349999580532;1;0.695
26;S05;A;pre;1;60.058797535060506;60;e;left;['right'];0.20350890001282096;1;0.643
27;S05;A;pre;1;60.058797535060506;68;e;left;['right'];0.244602799997665;1;0.689
28;S05;A;pre;1;60.058797535060506;72;e;left;['right'];0.19304059993010014;1;0.792
29;S05;A;pre;1;60.058797535060506;33;a;right;['right'];0.6899066000478342;1;1.411
30;S05;A;pre;1;60.058797535060506;1;a;right;['right'];0.1722482000477612;1;0.809
31;S05;A;pre;1;60.058797535060506;53;e;left;['left'];0.4257380999624729;1;1.431
32;S05;A;pre;1;60.058797535060506;16;a;right;['right'];0.2083628000691533;1;0.825
33;S05;A;pre;1;60.058797535060506;61;e;left;['right'];0.17076050001196563;1;0.732
34;S05;A;pre;1;60.058797535060506;42;e;left;['right'];0.16832950001116842;1;0.656
35;S05;A;pre;1;60.058797535060506;23;a;right;['right'];0.1606881000334397;1;0.786
36;S05;A;pre;1;60.058797535060506;77;e;left;['left'];0.22863619995769113;1;1.087
37;S05;A;pre;1;60.058797535060506;58;e;left;['right'];0.2189496000064537;1;0.8
38;S05;A;pre;1;60.058797535060506;74;e;left;['right'];0.1728745000436902;1;0.719
39;S05;A;pre;1;60.058797535060506;35;a;right;['right'];0.1965742000611499;1;0.82
40;S05;A;pre;1;60.058797535060506;8;a;right;['right'];0.3227829000679776;1;1.007
41;S05;A;pre;1;60.058797535060506;34;a;right;['left'];0.5260635999729857;1;1.375
42;S05;A;pre;1;60.058797535060506;31;a;right;['right'];0.31909659993834794;1;1.461
43;S05;A;pre;1;60.058797535060506;57;e;left;['right'];0.21365050005260855;1;0.705
44;S05;A;pre;1;60.058797535060506;92;noise;;['left'];0.2695628999499604;0;0.954
45;S05;A;pre;1;60.058797535060506;11;a;right;['left'];0.5353194000199437;1;1.058
46;S05;A;pre;1;60.058797535060506;9;a;right;['right'];0.1643794000847265;1;0.752
47;S05;A;pre;1;60.058797535060506;89;noise;;['left'];0.18612740002572536;0;0.678
48;S05;A;pre;1;60.058797535060506;4;a;right;['right'];1.8816058000084013;1;1.195
49;S05;A;pre;1;60.058797535060506;46;e;left;['right'];0.2266556000104174;1;0.7
50;S05;A;pre;1;60.058797535060506;7;a;right;['left'];0.23250530008226633;1;1.017
51;S05;A;pre;1;60.058797535060506;73;e;left;['right'];0.2599501999793574;1;0.85
52;S05;A;pre;1;60.058797535060506;12;a;right;['right'];0.17396259994711727;1;0.858
53;S05;A;pre;1;60.058797535060506;87;noise;;['left'];0.28872599999886006;0;0.974
54;S05;A;pre;1;60.058797535060506;19;a;right;['right'];0.2599496999755502;1;0.831
55;S05;A;pre;1;60.058797535060506;66;e;left;['right'];0.20763149997219443;1;1.03
56;S05;A;pre;1;60.058797535060506;22;a;right;['right'];0.14359590003732592;1;0.808
57;S05;A;pre;1;60.058797535060506;41;e;left;['left'];0.11450010002590716;1;0.709
58;S05;A;pre;1;60.058797535060506;28;a;right;['right'];0.14449450001120567;1;0.757
59;S05;A;pre;1;60.058797535060506;52;e;left;['left'];0.14038140000775456;1;0.707
60;S05;A;pre;1;60.058797535060506;63;e;left;['right'];0.556014500092715;1;0.907
61;S05;A;pre;1;60.058797535060506;13;a;right;['right'];0.19812309998087585;1;1.117
62;S05;A;pre;1;60.058797535060506;20;a;right;['right'];0.1253722000401467;1;0.816
63;S05;A;pre;1;60.058797535060506;18;a;right;['right'];0.11575530003756285;1;0.71
64;S05;A;pre;1;60.058797535060506;88;noise;;['left'];0.2591476000379771;0;0.935
65;S05;A;pre;1;60.058797535060506;51;e;left;['right'];0.18504329991992563;1;1.534
66;S05;A;pre;1;60.058797535060506;48;e;left;['right'];0.19742340000811964;1;0.878
67;S05;A;pre;1;60.058797535060506;95;noise;;['left'];0.15343780000694096;0;0.682
68;S05;A;pre;1;60.058797535060506;25;a;right;['right'];0.34328929998446256;1;0.756
69;S05;A;pre;1;60.058797535060506;3;a;right;['right'];0.29092910001054406;1;0.97
70;S05;A;pre;1;60.058797535060506;27;a;right;['right'];0.22061989991925657;1;0.832
71;S05;A;pre;1;60.058797535060506;10;a;right;['right'];0.20123590005096048;1;1.288
72;S05;A;pre;1;60.058797535060506;40;e;left;['left'];0.19226969999726862;1;0.76
73;S05;A;pre;1;60.058797535060506;78;e;left;['left'];0.20145619998220354;1;0.937
74;S05;A;pre;1;60.058797535060506;17;a;right;['right'];0.3040073999436572;1;1.43
75;S05;A;pre;1;60.058797535060506;71;e;left;['right'];0.31169349991250783;1;0.863
76;S05;A;pre;1;60.058797535060506;36;a;right;['right'];0.18358670000452548;1;0.897
77;S05;A;pre;1;60.058797535060506;81;noise;;['left'];0.24380360008217394;0;0.919
78;S05;A;pre;1;60.058797535060506;54;e;left;['left'];0.1256002999143675;1;0.913
79;S05;A;pre;1;60.058797535060506;43;e;left;['left'];0.13856490002945065;1;0.739
80;S05;A;pre;1;60.058797535060506;62;e;left;['right'];0.1570078000659123;1;4.194
81;S05;A;pre;1;60.058797535060506;39;a;right;['right'];0.14421389997005463;1;0.776
82;S05;A;pre;1;60.058797535060506;0;a;right;['right'];0.1975877999793738;1;1.499
83;S05;A;pre;1;60.058797535060506;94;noise;;['right'];0.15786450006999075;0;0.593
84;S05;A;pre;1;60.058797535060506;82;noise;;['right'];0.18581920000724494;0;1.096
85;S05;A;pre;1;60.058797535060506;80;noise;;['left'];0.2716204000171274;0;0.863
86;S05;A;pre;1;60.058797535060506;79;e;left;['left'];0.22275770001579076;1;0.912
87;S05;A;pre;1;60.058797535060506;2;a;right;['right'];0.23035859991796315;1;0.952
88;S05;A;pre;1;60.058797535060506;49;e;left;['right'];0.5241684999782592;1;2.459
89;S05;A;pre;1;60.058797535060506;99;noise;;['left'];0.4061410999856889;0;0.645
90;S05;A;pre;1;60.058797535060506;24;a;right;['right'];0.408303500036709;1;2.086
91;S05;A;pre;1;60.058797535060506;5;a;right;['right'];0.18957439996302128;1;0.872
92;S05;A;pre;1;60.058797535060506;38;a;right;['right'];0.13127060001716018;1;1.469
93;S05;A;pre;1;60.058797535060506;75;e;left;['right'];0.10106250003445894;1;0.754
94;S05;A;pre;1;60.058797535060506;69;e;left;['right'];0.6838501999154687;1;0.912
95;S05;A;pre;1;60.058797535060506;21;a;right;['right'];0.15572599996812642;1;1.348
96;S05;A;pre;1;60.058797535060506;67;e;left;['right'];0.2659209999255836;1;1.807
97;S05;A;pre;1;60.058797535060506;55;e;left;['right'];0.18625140003859997;1;0.703
98;S05;A;pre;1;60.058797535060506;30;a;right;['right'];0.23616700002457947;1;1.016
99;S05;A;pre;1;60.058797535060506;44;e;left;['right'];0.30201959994155914;1;1.07
100;S05;A;pre;2;60.058797535060506;58;e;left;['right'];0.28366019995883107;1;1.545
101;S05;A;pre;2;60.058797535060506;24;a;right;['right'];0.1349727000342682;1;0.801
102;S05;A;pre;2;60.058797535060506;29;a;right;['left'];0.3311602999456227;1;1.37
103;S05;A;pre;2;60.058797535060506;11;a;right;['right'];0.1619389000115916;1;1.021
104;S05;A;pre;2;60.058797535060506;85;noise;;['right'];0.270633100066334;0;0.641
105;S05;A;pre;2;60.058797535060506;27;a;right;['left'];0.1779679999453947;1;0.867
106;S05;A;pre;2;60.058797535060506;54;e;left;['left'];0.19380040001124144;1;0.788
107;S05;A;pre;2;60.058797535060506;5;a;right;['right'];0.15469060000032187;1;1.0
108;S05;A;pre;2;60.058797535060506;72;e;left;['right'];0.16216890001669526;1;0.811
109;S05;A;pre;2;60.058797535060506;71;e;left;['right'];0.33122769999317825;1;0.953
110;S05;A;pre;2;60.058797535060506;17;a;right;['right'];0.3104295999510214;0;1.174
111;S05;A;pre;2;60.058797535060506;36;a;right;['left'];0.2681991000426933;0;2.957
112;S05;A;pre;2;60.058797535060506;41;e;left;['right'];0.23742979997768998;1;0.867
113;S05;A;pre;2;60.058797535060506;67;e;left;['right'];0.2529405999230221;1;0.957
114;S05;A;pre;2;60.058797535060506;21;a;right;['left'];0.281395300058648;1;1.214
115;S05;A;pre;2;60.058797535060506;95;noise;;['left'];0.2874785999301821;0;0.779
116;S05;A;pre;2;60.058797535060506;23;a;right;['left'];1.315229200059548;0;1.375
117;S05;A;pre;2;60.058797535060506;8;a;right;['left'];0.5103703000349924;1;1.389
118;S05;A;pre;2;60.058797535060506;61;e;left;['right'];0.149763899971731;1;0.874
119;S05;A;pre;2;60.058797535060506;49;e;left;['right'];0.2662876999238506;1;1.699
120;S05;A;pre;2;60.058797535060506;47;e;left;['right'];0.8140269999857992;0;0.665
121;S05;A;pre;2;60.058797535060506;20;a;right;['right'];0.14478949992917478;1;0.905
122;S05;A;pre;2;60.058797535060506;31;a;right;['right'];0.08607800002209842;1;0.734
123;S05;A;pre;2;60.058797535060506;22;a;right;['right'];0.21131139993667603;1;1.759
124;S05;A;pre;2;60.058797535060506;4;a;right;['right'];0.24110620003193617;1;1.435
125;S05;A;pre;2;60.058797535060506;18;a;right;['left'];0.18601699999999255;1;1.119
126;S05;A;pre;2;60.058797535060506;52;e;left;['right'];0.3305594000266865;0;1.583
127;S05;A;pre;2;60.058797535060506;64;e;left;['left'];0.3948132999939844;1;1.037
128;S05;A;pre;2;60.058797535060506;0;a;right;['right'];0.2497719000093639;1;0.987
129;S05;A;pre;2;60.058797535060506;3;a;right;['left'];0.5081185000017285;1;1.281
130;S05;A;pre;2;60.058797535060506;57;e;left;['left'];0.2275876000057906;1;0.972
131;S05;A;pre;2;60.058797535060506;77;e;left;['right'];0.2050052999984473;1;0.739
132;S05;A;pre;2;60.058797535060506;7;a;right;['left'];0.155590399983339;1;0.821
133;S05;A;pre;2;60.058797535060506;75;e;left;['left'];0.21993629995267838;1;0.785
134;S05;A;pre;2;60.058797535060506;38;a;right;['right'];0.20068480004556477;1;0.827
135;S05;A;pre;2;60.058797535060506;93;noise;;['left'];0.34592880005948246;0;0.946
136;S05;A;pre;2;60.058797535060506;62;e;left;['right'];0.1791660999879241;1;0.817
137;S05;A;pre;2;60.058797535060506;65;e;left;['left'];0.2200658000074327;1;0.793
138;S05;A;pre;2;60.058797535060506;19;a;right;['right'];0.29697759996633977;1;0.892
139;S05;A;pre;2;60.058797535060506;51;e;left;['left'];0.6946117000188679;1;3.536
140;S05;A;pre;2;60.058797535060506;16;a;right;['right'];0.17550740006845444;1;0.838
141;S05;A;pre;2;60.058797535060506;96;noise;;['right'];0.264302899944596;0;1.19
142;S05;A;pre;2;60.058797535060506;15;a;right;['left'];0.25520720006898046;1;1.33
143;S05;A;pre;2;60.058797535060506;74;e;left;['right'];0.16361440008040518;1;0.858
144;S05;A;pre;2;60.058797535060506;35;a;right;['right'];0.13871600001584738;1;0.644
145;S05;A;pre;2;60.058797535060506;39;a;right;['right'];0.15840359998401254;1;0.769
146;S05;A;pre;2;60.058797535060506;40;e;left;['right'];0.26095200004056096;1;2.062
147;S05;A;pre;2;60.058797535060506;82;noise;;['left'];0.2026596999494359;0;0.791
148;S05;A;pre;2;60.058797535060506;63;e;left;['right'];0.20344770001247525;1;0.749
149;S05;A;pre;2;60.058797535060506;55;e;left;['right'];0.22473130002617836;1;1.24
150;S05;A;pre;2;60.058797535060506;1;a;right;['right'];0.1795084000332281;1;0.72
151;S05;A;pre;2;60.058797535060506;42;e;left;['right'];0.15100499999243766;1;0.738
152;S05;A;pre;2;60.058797535060506;97;noise;;['left'];0.33210060000419617;0;0.884
153;S05;A;pre;2;60.058797535060506;48;e;left;['right'];0.18845329992473125;1;1.633
154;S05;A;pre;2;60.058797535060506;30;a;right;['right'];0.22966640000231564;1;0.939
155;S05;A;pre;2;60.058797535060506;90;noise;;['left'];0.3956643999554217;0;0.886
156;S05;A;pre;2;60.058797535060506;13;a;right;['right'];0.2656837999820709;1;1.035
157;S05;A;pre;2;60.058797535060506;84;noise;;['left'];5.320717599941418;0;1.364
158;S05;A;pre;2;60.058797535060506;88;noise;;['left'];0.265057299984619;0;1.046
159;S05;A;pre;2;60.058797535060506;25;a;right;['right'];0.27049929997883737;1;1.37
160;S05;A;pre;2;60.058797535060506;69;e;left;['left'];0.2622016000095755;1;0.928
161;S05;A;pre;2;60.058797535060506;99;noise;;['left'];0.3647449999116361;0;1.559
162;S05;A;pre;2;60.058797535060506;83;noise;;['left'];0.461011299979873;0;0.832
163;S05;A;pre;2;60.058797535060506;89;noise;;['right'];0.5309544999618083;0;0.99
164;S05;A;pre;2;60.058797535060506;32;a;right;['right'];0.45173039997462183;1;2.204
165;S05;A;pre;2;60.058797535060506;94;noise;;['right'];0.2802606000332162;0;0.892
166;S05;A;pre;2;60.058797535060506;66;e;left;['left'];0.18639000004623085;1;1.567
167;S05;A;pre;2;60.058797535060506;73;e;left;['right'];0.3118238999741152;1;0.819
168;S05;A;pre;2;60.058797535060506;44;e;left;['left'];0.19186409993562847;1;0.859
169;S05;A;pre;2;60.058797535060506;86;noise;;['left'];0.7519760999130085;0;0.949
170;S05;A;pre;2;60.058797535060506;14;a;right;['left'];0.23580499994568527;1;1.965
171;S05;A;pre;2;60.058797535060506;78;e;left;['right'];0.5103822000091895;1;1.296
172;S05;A;pre;2;60.058797535060506;6;a;right;['right'];0.40282590000424534;1;1.349
173;S05;A;pre;2;60.058797535060506;10;a;right;['left'];0.3471770000178367;1;1.179
174;S05;A;pre;2;60.058797535060506;46;e;left;['left'];0.23631359997671098;1;0.811
175;S05;A;pre;2;60.058797535060506;26;a;right;['left'];0.19498819997534156;1;0.789
176;S05;A;pre;2;60.058797535060506;70;e;left;['left'];0.4260788999963552;1;0.807
177;S05;A;pre;2;60.058797535060506;60;e;left;['left'];0.22417249996215105;1;1.047
178;S05;A;pre;2;60.058797535060506;34;a;right;['left'];0.18843599990941584;1;0.858
179;S05;A;pre;2;60.058797535060506;53;e;left;['right'];0.27894170000217855;1;0.946
180;S05;A;pre;2;60.058797535060506;2;a;right;['left'];0.41176859999541193;0;7.039
181;S05;A;pre;2;60.058797535060506;45;e;left;['right'];0.14532580005470663;1;0.767
182;S05;A;pre;2;60.058797535060506;80;noise;;['left'];0.2765382999787107;0;0.767
183;S05;A;pre;2;60.058797535060506;9;a;right;['right'];0.17223400005605072;1;0.735
184;S05;A;pre;2;60.058797535060506;12;a;right;['right'];0.1228469000197947;1;0.894
185;S05;A;pre;2;60.058797535060506;92;noise;;['left'];0.3243109999457374;0;0.947
186;S05;A;pre;2;60.058797535060506;98;noise;;['right'];0.28731809998862445;0;1.189
187;S05;A;pre;2;60.058797535060506;68;e;left;['right'];0.18196950003039092;1;1.127
188;S05;A;pre;2;60.058797535060506;59;e;left;['right'];0.3962124999379739;1;2.425
189;S05;A;pre;2;60.058797535060506;37;a;right;['right'];0.2709000000031665;1;1.161
190;S05;A;pre;2;60.058797535060506;56;e;left;['left'];2.4824161999858916;1;1.246
191;S05;A;pre;2;60.058797535060506;91;noise;;['left'];0.33710070000961423;0;0.908
192;S05;A;pre;2;60.058797535060506;43;e;left;['left'];0.48125790001358837;1;1.212
193;S05;A;pre;2;60.058797535060506;33;a;right;['right'];0.23005380004178733;1;0.991
194;S05;A;pre;2;60.058797535060506;87;noise;;['right'];0.498839300009422;0;1.042
195;S05;A;pre;2;60.058797535060506;50;e;left;['left'];0.2537220000522211;1;1.089
196;S05;A;pre;2;60.058797535060506;81;noise;;['left'];0.5554687000112608;0;1.002
197;S05;A;pre;2;60.058797535060506;79;e;left;['left'];0.394270799937658;1;1.244
198;S05;A;pre;2;60.058797535060506;76;e;left;['left'];0.24479629995767027;1;1.104
199;S05;A;pre;2;60.058797535060506;28;a;right;['right'];0.37115979997906834;1;2.985
200;S05;A;pre;3;60.058797535060506;72;e;left;['left'];2.1830813999986276;1;2.128
201;S05;A;pre;3;60.058797535060506;28;a;right;['right'];0.4350734999170527;1;1.259
202;S05;A;pre;3;60.058797535060506;23;a;right;['right'];0.6638376000337303;1;1.069
203;S05;A;pre;3;60.058797535060506;66;e;left;['left'];0.27569029992446303;1;0.777
204;S05;A;pre;3;60.058797535060506;61;e;left;['left'];0.27268809999804944;1;2.0
205;S05;A;pre;3;60.058797535060506;69;e;left;['left'];0.3226077000144869;1;0.898
206;S05;A;pre;3;60.058797535060506;54;e;left;['right'];0.37538059998769313;1;0.749
207;S05;A;pre;3;60.058797535060506;85;noise;;['right'];0.6229325000895187;0;0.781
208;S05;A;pre;3;60.058797535060506;40;e;left;['right'];0.31395800004247576;1;0.919
209;S05;A;pre;3;60.058797535060506;31;a;right;['right'];0.2845586999319494;1;0.952
210;S05;A;pre;3;60.058797535060506;90;noise;;['left'];0.8681370000122115;0;1.159
211;S05;A;pre;3;60.058797535060506;51;e;left;['right'];0.6357319999951869;1;1.553
212;S05;A;pre;3;60.058797535060506;35;a;right;['right'];0.3248979999916628;1;1.127
213;S05;A;pre;3;60.058797535060506;63;e;left;['right'];0.19581760000437498;1;2.47
214;S05;A;pre;3;60.058797535060506;76;e;left;['right'];0.3280520999105647;1;0.828
215;S05;A;pre;3;60.058797535060506;26;a;right;['left'];0.3105546000879258;0;0.756
216;S05;A;pre;3;60.058797535060506;44;e;left;['left'];0.18933940003626049;1;0.93
217;S05;A;pre;3;60.058797535060506;64;e;left;['right'];0.23995889991056174;1;0.74
218;S05;A;pre;3;60.058797535060506;83;noise;;['left'];0.3210337000200525;0;0.886
219;S05;A;pre;3;60.058797535060506;11;a;right;['right'];0.383912599994801;1;0.906
220;S05;A;pre;3;60.058797535060506;4;a;right;['right'];0.16293440002482384;1;1.725
221;S05;A;pre;3;60.058797535060506;27;a;right;['right'];0.17598780000116676;1;0.935
222;S05;A;pre;3;60.058797535060506;42;e;left;['right'];0.18791249999776483;1;1.108
223;S05;A;pre;3;60.058797535060506;94;noise;;['right'];0.4076661999570206;0;0.78
224;S05;A;pre;3;60.058797535060506;81;noise;;['left'];0.9772877000505105;0;4.086
225;S05;A;pre;3;60.058797535060506;37;a;right;['right'];0.7243369000498205;1;2.567
226;S05;A;pre;3;60.058797535060506;7;a;right;['right'];0.2890055999159813;1;0.917
227;S05;A;pre;3;60.058797535060506;98;noise;;['left'];0.645640300004743;0;1.048
228;S05;A;pre;3;60.058797535060506;39;a;right;['left'];0.3085669999709353;1;9.337
229;S05;A;pre;3;60.058797535060506;50;e;left;['right'];0.195782299968414;1;0.88
230;S05;A;pre;3;60.058797535060506;71;e;left;['left'];0.2256229999475181;0;1.449
231;S05;A;pre;3;60.058797535060506;45;e;left;['left'];0.23125910002272576;1;0.991
232;S05;A;pre;3;60.058797535060506;46;e;left;['right'];0.24249600002076477;1;1.24
233;S05;A;pre;3;60.058797535060506;29;a;right;['right'];0.2167068999260664;1;0.799
234;S05;A;pre;3;60.058797535060506;91;noise;;['right'];0.387699699960649;0;1.056
235;S05;A;pre;3;60.058797535060506;97;noise;;['right'];0.32842430006712675;0;0.937
236;S05;A;pre;3;60.058797535060506;82;noise;;['right'];0.36118140001781285;0;0.79
237;S05;A;pre;3;60.058797535060506;88;noise;;['right'];0.49009550001937896;0;0.851
238;S05;A;pre;3;60.058797535060506;48;e;left;['right'];0.3281227999832481;0;0.786
239;S05;A;pre;3;60.058797535060506;95;noise;;['right'];0.3311661999905482;0;1.366
240;S05;A;pre;3;60.058797535060506;56;e;left;['right'];0.7030059000244364;0;4.547
241;S05;A;pre;3;60.058797535060506;36;a;right;['right'];0.18984340003225952;1;1.315
242;S05;A;pre;3;60.058797535060506;30;a;right;['right'];1.1856003999710083;0;1.124
243;S05;A;pre;3;60.058797535060506;0;a;right;['right'];0.25177999993320554;1;0.965
244;S05;A;pre;3;60.058797535060506;80;noise;;['right'];0.4203570999670774;0;1.136
245;S05;A;pre;3;60.058797535060506;89;noise;;['right'];0.3484557999763638;0;0.962
246;S05;A;pre;3;60.058797535060506;15;a;right;['right'];0.29720279993489385;0;0.885
247;S05;A;pre;3;60.058797535060506;13;a;right;['left'];0.656967299990356;1;1.51
248;S05;A;pre;3;60.058797535060506;73;e;left;['left'];0.21068590006325394;1;0.889
249;S05;A;pre;3;60.058797535060506;60;e;left;['left'];0.2673578999238089;1;0.963
250;S05;A;pre;3;60.058797535060506;16;a;right;['right'];0.23218070005532354;1;1.013
251;S05;A;pre;3;60.058797535060506;86;noise;;['right'];0.7137263999320567;0;1.727
252;S05;A;pre;3;60.058797535060506;41;e;left;['right'];0.20669769996311516;1;2.481
253;S05;A;pre;3;60.058797535060506;75;e;left;['right'];0.17124920000787824;1;0.882
254;S05;A;pre;3;60.058797535060506;84;noise;;['right'];1.0586600000970066;0;0.67
255;S05;A;pre;3;60.058797535060506;8;a;right;['right'];0.1454952999483794;1;1.566
256;S05;A;pre;3;60.058797535060506;93;noise;;['right'];0.47255480010062456;0;1.258
257;S05;A;pre;3;60.058797535060506;55;e;left;['right'];0.49835929996334016;1;0.869
258;S05;A;pre;3;60.058797535060506;79;e;left;['left'];0.12634960003197193;1;0.824
259;S05;A;pre;3;60.058797535060506;70;e;left;['right'];0.20971630001440644;1;0.726
260;S05;A;pre;3;60.058797535060506;92;noise;;['right'];0.3479986999882385;0;1.019
261;S05;A;pre;3;60.058797535060506;21;a;right;['right'];0.4403658000519499;1;3.525
262;S05;A;pre;3;60.058797535060506;77;e;left;['right'];0.504790100036189;1;3.931
263;S05;A;pre;3;60.058797535060506;49;e;left;['right'];0.2335167999844998;1;0.692
264;S05;A;pre;3;60.058797535060506;17;a;right;['right'];0.13956319994758815;1;1.285
265;S05;A;pre;3;60.058797535060506;19;a;right;['right'];0.11382159998174757;1;0.698
266;S05;A;pre;3;60.058797535060506;68;e;left;['left'];0.47446159995160997;1;0.864
267;S05;A;pre;3;60.058797535060506;1;a;right;['right'];0.19339369994122535;1;0.72
268;S05;A;pre;3;60.058797535060506;9;a;right;['right'];0.18846139998640865;1;0.733
269;S05;A;pre;3;60.058797535060506;58;e;left;['right'];0.19109630002640188;1;0.75
270;S05;A;pre;3;60.058797535060506;25;a;right;['right'];0.18528299999888986;1;0.74
271;S05;A;pre;3;60.058797535060506;78;e;left;['left'];0.11342529999092221;1;0.669
272;S05;A;pre;3;60.058797535060506;87;noise;;['right'];0.5679554000962526;0;1.681
273;S05;A;pre;3;60.058797535060506;96;noise;;['right'];0.155916600022465;0;1.05
274;S05;A;pre;3;60.058797535060506;53;e;left;['left'];0.30027209990657866;1;0.881
275;S05;A;pre;3;60.058797535060506;38;a;right;['right'];0.36045799998100847;1;0.788
276;S05;A;pre;3;60.058797535060506;62;e;left;['right'];0.1672378999646753;1;0.871
277;S05;A;pre;3;60.058797535060506;59;e;left;['right'];0.8103408999741077;1;1.354
278;S05;A;pre;3;60.058797535060506;2;a;right;['right'];0.3706711999839172;1;2.384
279;S05;A;pre;3;60.058797535060506;43;e;left;['right'];0.2139526999089867;1;0.917
280;S05;A;pre;3;60.058797535060506;5;a;right;['right'];0.21601540001574904;1;0.753
281;S05;A;pre;3;60.058797535060506;57;e;left;['right'];0.24016130005475134;1;0.972
282;S05;A;pre;3;60.058797535060506;33;a;right;['right'];0.13469129998702556;1;0.754
283;S05;A;pre;3;60.058797535060506;32;a;right;['right'];0.21097949997056276;1;0.741
284;S05;A;pre;3;60.058797535060506;47;e;left;['right'];0.16131090000271797;1;0.821
285;S05;A;pre;3;60.058797535060506;20;a;right;['right'];0.16208669997286052;1;0.619
286;S05;A;pre;3;60.058797535060506;24;a;right;['right'];0.19910069997422397;1;1.922
287;S05;A;pre;3;60.058797535060506;22;a;right;['right'];0.08801179996225983;1;0.756
288;S05;A;pre;3;60.058797535060506;14;a;right;['left'];0.12137890001758933;1;0.702
289;S05;A;pre;3;60.058797535060506;10;a;right;['right'];0.13181689998600632;1;1.351
290;S05;A;pre;3;60.058797535060506;74;e;left;['left'];0.11839319998398423;1;1.193
291;S05;A;pre;3;60.058797535060506;3;a;right;['right'];0.16114800004288554;1;1.888
292;S05;A;pre;3;60.058797535060506;67;e;left;['left'];0.19943850010167807;1;0.819
293;S05;A;pre;3;60.058797535060506;65;e;left;['right'];0.1438505999976769;1;1.619
294;S05;A;pre;3;60.058797535060506;52;e;left;['right'];0.5242205000249669;1;0.931
295;S05;A;pre;3;60.058797535060506;18;a;right;['right'];0.13257700006943196;1;0.849
296;S05;A;pre;3;60.058797535060506;34;a;right;['right'];0.18032649997621775;1;0.89
297;S05;A;pre;3;60.058797535060506;99;noise;;['right'];0.9228883000323549;0;0.811
298;S05;A;pre;3;60.058797535060506;12;a;right;['right'];0.30799430003389716;1;0.85
299;S05;A;pre;3;60.058797535060506;6;a;right;['right'];0.17966160003561527;1;0.676
300;S05;A;pre;4;60.058797535060506;55;e;left;['left'];0.13108379999175668;1;1.019
301;S05;A;pre;4;60.058797535060506;40;e;left;['left'];0.24248360004276037;1;0.653
302;S05;A;pre;4;60.058797535060506;19;a;right;['right'];0.20021799998357892;1;0.607
303;S05;A;pre;4;60.058797535060506;7;a;right;['right'];0.2569014000473544;1;0.971
304;S05;A;pre;4;60.058797535060506;67;e;left;['left'];0.4024574999930337;1;1.733
305;S05;A;pre;4;60.058797535060506;44;e;left;['right'];0.4907905999571085;1;0.785
306;S05;A;pre;4;60.058797535060506;62;e;left;['left'];0.35290220007300377;1;0.739
307;S05;A;pre;4;60.058797535060506;0;a;right;['left'];0.2217690999386832;1;0.905
308;S05;A;pre;4;60.058797535060506;47;e;left;['right'];0.35543829994276166;1;2.245
309;S05;A;pre;4;60.058797535060506;25;a;right;['right'];0.22455180005636066;1;1.492
310;S05;A;pre;4;60.058797535060506;5;a;right;['right'];0.6227019000798464;1;1.621
311;S05;A;pre;4;60.058797535060506;94;noise;;['left'];0.4395998999243602;0;0.721
312;S05;A;pre;4;60.058797535060506;42;e;left;['right'];0.16272070002742112;1;1.091
313;S05;A;pre;4;60.058797535060506;2;a;right;['right'];0.13850070000626147;1;0.756
314;S05;A;pre;4;60.058797535060506;6;a;right;['right'];0.15124019992072135;1;0.827
315;S05;A;pre;4;60.058797535060506;83;noise;;['right'];0.42499149998184294;0;0.765
316;S05;A;pre;4;60.058797535060506;95;noise;;['right'];2.159931099973619;0;1.581
317;S05;A;pre;4;60.058797535060506;54;e;left;['right'];0.29419570008758456;1;0.842
318;S05;A;pre;4;60.058797535060506;99;noise;;['left'];0.5314003999810666;0;0.831
319;S05;A;pre;4;60.058797535060506;68;e;left;['right'];0.34777699992991984;1;0.821
320;S05;A;pre;4;60.058797535060506;11;a;right;['right'];0.31178640003781766;0;0.937
321;S05;A;pre;4;60.058797535060506;37;a;right;['right'];0.19437169993761927;0;1.051
322;S05;A;pre;4;60.058797535060506;97;noise;;['right'];0.2595905000343919;0;0.749
323;S05;A;pre;4;60.058797535060506;29;a;right;['right'];0.30998620006721467;1;0.679
324;S05;A;pre;4;60.058797535060506;60;e;left;['right'];0.1459865999640897;0;1.163
325;S05;A;pre;4;60.058797535060506;93;noise;;['left'];0.27681119996123016;0;0.782
326;S05;A;pre;4;60.058797535060506;65;e;left;['right'];0.2501266000326723;1;1.195
327;S05;A;pre;4;60.058797535060506;53;e;left;['right'];0.20395969995297492;1;0.91
328;S05;A;pre;4;60.058797535060506;28;a;right;['right'];0.44935210002586246;1;1.041
329;S05;A;pre;4;60.058797535060506;86;noise;;['left'];0.19827549997717142;0;1.024
330;S05;A;pre;4;60.058797535060506;84;noise;;['right'];0.22517939994577318;0;0.902
331;S05;A;pre;4;60.058797535060506;24;a;right;['right'];0.15243929997086525;1;0.768
332;S05;A;pre;4;60.058797535060506;15;a;right;['right'];0.20186439994722605;1;1.009
333;S05;A;pre;4;60.058797535060506;17;a;right;['right'];0.2562442000489682;1;0.839
334;S05;A;pre;4;60.058797535060506;69;e;left;['right'];0.22901630005799234;1;0.809
335;S05;A;pre;4;60.058797535060506;82;noise;;['right'];0.4233170000370592;0;0.874
336;S05;A;pre;4;60.058797535060506;76;e;left;['left'];0.11853950005024672;1;1.169
337;S05;A;pre;4;60.058797535060506;13;a;right;['left'];0.22691099997609854;1;0.951
338;S05;A;pre;4;60.058797535060506;57;e;left;['left'];0.29566720000002533;1;1.271
339;S05;A;pre;4;60.058797535060506;38;a;right;['right'];0.1598126000026241;1;0.714
340;S05;A;pre;4;60.058797535060506;71;e;left;['right'];1.5618022000417113;1;0.792
341;S05;A;pre;4;60.058797535060506;80;noise;;['left'];0.5895715999649838;0;0.935
342;S05;A;pre;4;60.058797535060506;34;a;right;['right'];0.24198900000192225;1;1.111
343;S05;A;pre;4;60.058797535060506;88;noise;;['left'];0.6340118000516668;0;0.808
344;S05;A;pre;4;60.058797535060506;23;a;right;['right'];0.7470835000276566;0;2.852
345;S05;A;pre;4;60.058797535060506;77;e;left;['left'];0.434198800008744;1;1.272
346;S05;A;pre;4;60.058797535060506;96;noise;;['left'];0.4021243000170216;0;0.741
347;S05;A;pre;4;60.058797535060506;1;a;right;['right'];0.2276191000128165;1;1.965
348;S05;A;pre;4;60.058797535060506;10;a;right;['right'];0.27946979994885623;1;1.449
349;S05;A;pre;4;60.058797535060506;21;a;right;['right'];1.1638304999796674;1;0.99
350;S05;A;pre;4;60.058797535060506;14;a;right;['left'];0.14568479999434203;1;0.896
351;S05;A;pre;4;60.058797535060506;61;e;left;['right'];0.16642289992887527;1;0.694
352;S05;A;pre;4;60.058797535060506;89;noise;;['right'];0.44795539998449385;0;1.376
353;S05;A;pre;4;60.058797535060506;49;e;left;['right'];1.1596903000026941;1;1.348
354;S05;A;pre;4;60.058797535060506;70;e;left;['right'];0.1402343000518158;1;0.698
355;S05;A;pre;4;60.058797535060506;18;a;right;['right'];0.1920681999763474;1;0.608
356;S05;A;pre;4;60.058797535060506;4;a;right;['right'];0.16507630003616214;1;0.657
357;S05;A;pre;4;60.058797535060506;81;noise;;['right'];0.3243536000372842;0;0.844
358;S05;A;pre;4;60.058797535060506;64;e;left;['left'];0.08509710000362247;1;1.028
359;S05;A;pre;4;60.058797535060506;74;e;left;['left'];0.20712259993888438;1;1.7
360;S05;A;pre;4;60.058797535060506;16;a;right;['right'];0.1947049000300467;1;1.237
361;S05;A;pre;4;60.058797535060506;22;a;right;['right'];0.16311989992391318;1;3.628
362;S05;A;pre;4;60.058797535060506;20;a;right;['right'];0.2338402000023052;1;0.87
363;S05;A;pre;4;60.058797535060506;85;noise;;['right'];1.24402929993812;0;0.718
364;S05;A;pre;4;60.058797535060506;58;e;left;['right'];0.1514479999896139;1;1.075
365;S05;A;pre;4;60.058797535060506;52;e;left;['right'];0.1273805999662727;1;0.972
366;S05;A;pre;4;60.058797535060506;91;noise;;['right'];0.6191854999633506;0;0.814
367;S05;A;pre;4;60.058797535060506;46;e;left;['left'];0.1985921999439597;1;1.096
368;S05;A;pre;4;60.058797535060506;72;e;left;['right'];0.2067140000872314;1;0.722
369;S05;A;pre;4;60.058797535060506;35;a;right;['left'];0.12451380002312362;1;1.024
370;S05;A;pre;4;60.058797535060506;8;a;right;['right'];0.32989890000317246;1;0.933
371;S05;A;pre;4;60.058797535060506;92;noise;;['left'];0.9219358999980614;0;0.861
372;S05;A;pre;4;60.058797535060506;79;e;left;['left'];0.28036790003534406;1;0.912
373;S05;A;pre;4;60.058797535060506;73;e;left;['left'];0.19458120001945645;1;0.811
374;S05;A;pre;4;60.058797535060506;51;e;left;['left'];0.5161800000350922;1;1.014
375;S05;A;pre;4;60.058797535060506;90;noise;;['left'];2.6992879000026733;1;1.052
376;S05;A;pre;4;60.058797535060506;27;a;right;['right'];0.17935160000342876;1;2.699
377;S05;A;pre;4;60.058797535060506;33;a;right;['right'];0.2304415999678895;1;0.926
378;S05;A;pre;4;60.058797535060506;78;e;left;['right'];0.11620789999142289;1;0.804
379;S05;A;pre;4;60.058797535060506;31;a;right;['right'];0.12148540001362562;1;0.741
380;S05;A;pre;4;60.058797535060506;63;e;left;['right'];0.16983160004019737;1;1.025
381;S05;A;pre;4;60.058797535060506;56;e;left;['right'];0.26065439998637885;1;0.791
382;S05;A;pre;4;60.058797535060506;87;noise;;['right'];0.3580258999718353;0;0.887
383;S05;A;pre;4;60.058797535060506;3;a;right;['right'];0.15886540000792593;1;1.209
384;S05;A;pre;4;60.058797535060506;50;e;left;['right'];0.14129320008214563;1;0.821
385;S05;A;pre;4;60.058797535060506;98;noise;;['right'];0.29393329995218664;0;1.091
386;S05;A;pre;4;60.058797535060506;75;e;left;['right'];0.15428670006804168;1;0.752
387;S05;A;pre;4;60.058797535060506;39;a;right;['right'];0.17788380000274628;1;0.691
388;S05;A;pre;4;60.058797535060506;12;a;right;['right'];0.15962119994219393;1;1.433
389;S05;A;pre;4;60.058797535060506;9;a;right;['right'];0.2174469999736175;0;2.596
390;S05;A;pre;4;60.058797535060506;26;a;right;['right'];0.22372810007072985;1;0.807
391;S05;A;pre;4;60.058797535060506;48;e;left;['left'];0.2523016999475658;1;3.258
392;S05;A;pre;4;60.058797535060506;66;e;left;['left'];0.11366559995803982;1;0.799
393;S05;A;pre;4;60.058797535060506;43;e;left;['right'];0.11399370001163334;1;0.724
394;S05;A;pre;4;60.058797535060506;32;a;right;['right'];0.09449169994331896;1;0.912
395;S05;A;pre;4;60.058797535060506;36;a;right;['right'];0.23016119992826134;1;0.915
396;S05;A;pre;4;60.058797535060506;30;a;right;['left'];0.1368009999860078;1;3.684
397;S05;A;pre;4;60.058797535060506;41;e;left;['right'];0.4313951999647543;1;1.32
398;S05;A;pre;4;60.058797535060506;59;e;left;['right'];0.3137298000510782;1;0.679
399;S05;A;pre;4;60.058797535060506;45;e;left;['left'];0.17726820008829236;1;0.94
