;subject;stim;session;block;frame_rate;frame_int;trial_nb;SOA;real_SOA;target;mask;position;cor_ans;obj_rating;obj_RT;subj_rating;subj_RT;trial_duration;trigger
0;S06;A;pre;1;59.695077544482615;[0.01437889999942854, 0.016840899999806425, 0.01727989999926649, 0.015954800001054537];46;1;0.05007560000012745;8.tif;mask.tiff;-0.14;right;['left'];1.4169147000029625;0;1.952;5.228045200001361;24
1;S06;A;pre;1;59.695077544482615;[0.01639479999721516, 0.017095200000767363, 0.016741600000386825, 0.017065700001694495];2;1;0.05090250000284868;3.tif;mask.tiff;-0.14;left;['left'];1.8093196000008902;0;1.055;4.70853150000039;20
2;S06;A;pre;1;59.695077544482615;[0.015792800000781426, 0.017295399997237837, 0.016334600000845967, 0.016747000001487322];56;3;0.050376999999571126;2.tif;mask.tiff;-0.14;left;['left'];0.3108213000014075;0;1.042;3.1944459000005736;50
3;S06;A;pre;1;59.695077544482615;[0.017295800000283634, 0.016272000000753906, 0.01676940000106697, 0.017861799999081995];76;5;0.05090320000090287;7.tif;mask.tiff;-0.14;right;['right'];0.7838965000009921;0;0.904;3.533617700002651;86
4;S06;A;pre;1;59.695077544482615;[0.01537800000005518, 0.0163970999965386, 0.016545400001632515, 0.016697600000043167];83;2;0.04964009999821428;blank.tiff;mask.tiff;0.14;a;['right'];0.8816286999972363;0;0.756;3.4815420000013546;33
5;S06;A;pre;1;59.695077544482615;[0.01640430000043125, 0.016695400001481175, 0.01700669999991078, 0.01622499999939464];52;2;0.049927100000786595;7.tif;mask.tiff;-0.14;right;['left'];2.725743599999987;0;0.808;5.375604500000918;38
6;S06;A;pre;1;59.695077544482615;[0.01705279999805498, 0.016712200002075406, 0.016790899997431552, 0.01609230000030948];97;4;0.049595399999816436;blank.tiff;mask.tiff;0.14;a;['left'];0.8890181999995548;0;0.834;3.5558020999997098;65
7;S06;A;pre;1;59.695077544482615;[0.016255800001090392, 0.017665399998804787, 0.016006300000299234, 0.017245099999854574];86;4;0.050916799998958595;blank.tiff;mask.tiff;-0.14;a;['right'];0.7492018999982974;0;1.043;3.631256000000576;64
8;S06;A;pre;1;59.695077544482615;[0.016719799998099916, 0.01699200000075507, 0.01700889999847277, 0.01605340000241995];96;4;0.05005430000164779;blank.tiff;mask.tiff;-0.14;a;['left'];0.6632011000001512;0;1.032;3.5292965000007825;64
9;S06;A;pre;1;59.695077544482615;[0.017051100003300235, 0.016424399997049477, 0.017602100000658538, 0.015635399999155197];37;5;0.04966189999686321;7.tif;mask.tiff;0.14;right;['right'];0.643667699998332;0;1.019;3.4937200999993365;87
10;S06;A;pre;1;59.695077544482615;[0.016765899999882095, 0.017333800002234057, 0.016495199997734744, 0.016455900000437396];22;3;0.050284900000406196;8.tif;mask.tiff;-0.14;right;['right'];1.1320403999998234;0;1.228;4.197011299998849;56
11;S06;A;pre;1;59.695077544482615;[0.016930099998717196, 0.01644230000238167, 0.016901200000575045, 0.016892399999051122];44;1;0.05023590000200784;7.tif;mask.tiff;-0.14;right;['right'];1.1604662999998254;0;1.51;4.510277900000801;22
12;S06;A;pre;1;59.695077544482615;[0.01664130000062869, 0.016985399997793138, 0.017540199998620665, 0.015188900000794092];58;3;0.049714499997207895;3.tif;mask.tiff;-0.14;left;['left'];0.31212719999894034;0;1.114;3.261598099998082;52
13;S06;A;pre;1;59.695077544482615;[0.01579680000213557, 0.016809599997941405, 0.01692630000252393, 0.015890599999693222];32;5;0.04962650000015856;2.tif;mask.tiff;-0.14;left;['left'];0.5297578000026988;0;1.073;3.4457053000005544;82
14;S06;A;pre;1;59.695077544482615;[0.018493299998226576, 0.01698730000134674, 0.015901599999779137, 0.01700889999847277];84;3;0.04989779999959865;blank.tiff;mask.tiff;-0.14;a;['left'];0.28973020000194083;0;1.238;3.38943940000172;48
15;S06;A;pre;1;59.695077544482615;[0.016262599998299265, 0.017097100000682985, 0.01629780000075698, 0.016843000001244945];88;5;0.05023790000268491;blank.tiff;mask.tiff;-0.14;a;['left'];1.0195147000013094;0;1.279;4.135736500000348;80
16;S06;A;pre;1;59.695077544482615;[0.01908279999770457, 0.015758500001538778, 0.016823999998450745, 0.016548600000533042];30;4;0.049131100000522565;8.tif;mask.tiff;-0.14;right;['right'];0.3398727999992843;1;2.173;4.372668899999553;72
17;S06;A;pre;1;59.695077544482615;[0.016839100000652252, 0.01624660000015865, 0.016644899998937035, 0.016944999999395804];45;1;0.04983649999849149;7.tif;mask.tiff;0.14;right;['left'];0.575306400001864;0;1.02;3.4239539000009245;23
18;S06;A;pre;1;59.695077544482615;[0.016279100000247126, 0.016555999998672633, 0.017082499998650746, 0.016695700000127545];27;4;0.050334199997450924;3.tif;mask.tiff;0.14;left;['left'];0.6878257999997004;0;1.43;3.9535780000005616;69
19;S06;A;pre;1;59.695077544482615;[0.0160823000005621, 0.01699910000024829, 0.016400599997723475, 0.017073600000003353];60;3;0.05047329999797512;7.tif;mask.tiff;-0.14;right;['right'];0.22350060000098892;1;1.129;3.1894763999989664;54
20;S06;A;pre;1;59.695077544482615;[0.01681059999827994, 0.01659289999952307, 0.01707660000101896, 0.017063300001609605];90;1;0.050732800002151635;blank.tiff;mask.tiff;-0.14;a;['left'];0.7817623000009917;0;1.043;3.664667900000495;16
21;S06;A;pre;1;59.695077544482615;[0.01682489999802783, 0.021694300001399824, 0.011972199998126598, 0.016714400000637397];73;5;0.05038090000016382;2.tif;mask.tiff;0.14;left;['left'];0.4109284000005573;0;0.716;2.9600419999987935;83
22;S06;A;pre;1;59.695077544482615;[0.016703400000551483, 0.016891200000827666, 0.01653449999867007, 0.016170099999726517];8;2;0.049595799999224255;2.tif;mask.tiff;-0.14;left;['left'];0.2650362000022142;0;0.634;2.7321812999980466;34
23;S06;A;pre;1;59.695077544482615;[0.01684709999972256, 0.016678100000717677, 0.01666320000003907, 0.016848799998115283];21;3;0.05019009999887203;7.tif;mask.tiff;0.14;right;['left'];0.37317759999859845;0;0.822;3.0398320000022068;55
24;S06;A;pre;1;59.695077544482615;[0.016761099999712314, 0.01648390000264044, 0.01675759999852744, 0.016903899999306304];36;5;0.05014540000047418;7.tif;mask.tiff;-0.14;right;['right'];0.25289199999679113;0;0.823;2.9218750999971235;86
25;S06;A;pre;1;59.695077544482615;[0.01672100000359933, 0.017339799996989314, 0.016750500002672197, 0.01614299999710056];41;1;0.05023329999676207;2.tif;mask.tiff;0.14;left;['left'];0.1984918000016478;0;0.978;3.0152033000013034;19
26;S06;A;pre;1;59.695077544482615;[0.01563959999839426, 0.01629980000143405, 0.017053499999747146, 0.017583999997441424];89;5;0.05093729999862262;blank.tiff;mask.tiff;0.14;a;['left'];0.27267639999990934;0;0.943;3.0553618999983883;81
27;S06;A;pre;1;59.695077544482615;[0.016224499999225372, 0.01700140000320971, 0.016889499998796964, 0.016373099999327678];67;4;0.05026400000133435;3.tif;mask.tiff;0.14;left;['left'];0.31795620000048075;0;0.828;2.9832687999987684;69
28;S06;A;pre;1;59.695077544482615;[0.01623680000193417, 0.01670880000165198, 0.017780299996957183, 0.016093500002170913];91;1;0.050582600000780076;blank.tiff;mask.tiff;0.14;a;['left'];0.1865432000013243;0;0.901;2.938005500000145;17
29;S06;A;pre;1;59.695077544482615;[0.016361099998903228, 0.017497000000730623, 0.01643039999908069, 0.016035200002079364];70;4;0.04996260000189068;8.tif;mask.tiff;-0.14;right;['right'];0.24118369999996503;0;0.923;3.0068060999983572;72
30;S06;A;pre;1;59.695077544482615;[0.017295599998760736, 0.01592270000037388, 0.017426900001737522, 0.016262299999652896];0;1;0.0496119000017643;2.tif;mask.tiff;-0.14;left;['left'];0.2168134999992617;0;0.762;2.8164992000019993;18
31;S06;A;pre;1;59.695077544482615;[0.017435699999623466, 0.01643260000128066, 0.016743500000302447, 0.017517999996925937];35;5;0.050694099998509046;3.tif;mask.tiff;0.14;left;['right'];0.25465489999987767;0;0.71;2.804728700000851;85
32;S06;A;pre;1;59.695077544482615;[0.01720209999984945, 0.015804799997567898, 0.016528500000276836, 0.016670799999701558];18;3;0.04900409999754629;3.tif;mask.tiff;-0.14;left;['left'];0.20197629999893252;0;0.826;2.868563500000164;52
33;S06;A;pre;1;59.695077544482615;[0.01703560000169091, 0.016831699998874683, 0.016414699999586446, 0.016481099999509752];81;1;0.04972749999797088;blank.tiff;mask.tiff;0.14;a;['left'];0.375435900001321;0;1.078;3.29198550000001;17
34;S06;A;pre;1;59.695077544482615;[0.016320800001267344, 0.01678619999802322, 0.01612820000082138, 0.01664800000071409];10;2;0.04956239999955869;3.tif;mask.tiff;-0.14;left;['left'];0.2535548000014387;0;0.72;2.8199760999996215;36
35;S06;A;pre;1;59.695077544482615;[0.01667710000037914, 0.01718809999874793, 0.016744000000471715, 0.01617930000065826];42;1;0.050111399999877904;3.tif;mask.tiff;-0.14;left;['left'];0.31911439999748836;0;0.65;2.8199606999987736;20
36;S06;A;pre;1;59.695077544482615;[0.017140600000857376, 0.016770300000644056, 0.01627129999906174, 0.017022100000758655];49;2;0.05006370000046445;2.tif;mask.tiff;0.14;left;['left'];0.29616840000016964;0;0.691;2.8294456000003265;35
37;S06;A;pre;1;59.695077544482615;[0.014820399999734946, 0.01722479999807547, 0.015703500001109205, 0.016308800000842893];9;2;0.04923710000002757;2.tif;mask.tiff;0.14;left;['left'];0.2744009999987611;0;0.67;2.7906129999973928;35
38;S06;A;pre;1;59.695077544482615;[0.016088299998955335, 0.016941900001256727, 0.016358500000933418, 0.017348599998513237];16;3;0.05064900000070338;2.tif;mask.tiff;-0.14;left;['left'];0.17236480000065058;0;0.687;2.706019799999922;50
39;S06;A;pre;1;59.695077544482615;[0.017187599998578662, 0.016487600001710234, 0.016155599998455727, 0.01725309999892488];98;5;0.04989629999909084;blank.tiff;mask.tiff;-0.14;a;['left'];0.2701271000005363;0;0.615;2.7202362999996694;80
40;S06;A;pre;1;59.695077544482615;[0.0164965999974811, 0.016858000002685003, 0.01597339999716496, 0.017639300000155345];82;2;0.05047070000000531;blank.tiff;mask.tiff;-0.14;a;['left'];0.6672016999982588;0;2.869;5.900640799998655;32
41;S06;A;pre;1;59.695077544482615;[0.015855900001042755, 0.017694699999992736, 0.016349400000763126, 0.016846099999384023];20;3;0.050890200000139885;7.tif;mask.tiff;-0.14;right;['right'];0.19997220000004745;1;0.817;2.849629199998162;54
42;S06;A;pre;1;59.695077544482615;[0.01663909999842872, 0.016779800000222167, 0.016741999999794643, 0.016740999999456108];92;2;0.05026279999947292;blank.tiff;mask.tiff;-0.14;a;['left'];0.39419769999949494;0;0.739;2.9781098999992537;32
43;S06;A;pre;1;59.695077544482615;[0.01665789999970002, 0.01709109999865177, 0.017133900000771973, 0.016216399999393616];93;2;0.05044139999881736;blank.tiff;mask.tiff;0.14;a;['left'];0.25544129999980214;0;2.88;4.972288299999491;33
44;S06;A;pre;1;59.695077544482615;[0.016875200002687052, 0.01610169999912614, 0.01657089999935124, 0.016692400000465568];1;1;0.04936499999894295;2.tif;mask.tiff;0.14;left;['left'];0.44630550000147196;0;0.784;3.065089200001239;19
45;S06;A;pre;1;59.695077544482615;[0.01679820000208565, 0.01656679999723565, 0.01673520000258577, 0.01738189999741735];87;4;0.05068389999723877;blank.tiff;mask.tiff;0.14;a;['left'];0.4864411000016844;0;0.752;3.0864107000015792;65
46;S06;A;pre;1;59.695077544482615;[0.016828499999974156, 0.016855099998792866, 0.01675190000241855, 0.016117799998028204];48;2;0.04972479999923962;2.tif;mask.tiff;-0.14;left;['left'];0.22849780000251485;0;0.789;2.860581600001751;34
47;S06;A;pre;1;59.695077544482615;[0.017266399998334236, 0.0166215999997803, 0.01732830000037211, 0.015841600001294864];29;4;0.049791500001447275;7.tif;mask.tiff;0.14;right;['right'];0.7211689000032493;0;0.856;3.4211280999988958;71
48;S06;A;pre;1;59.695077544482615;[0.016765800002758624, 0.017276399998081615, 0.01616940000167233, 0.0168974000007438];11;2;0.050343200000497745;3.tif;mask.tiff;0.14;left;['left'];0.3151194000020041;0;0.888;3.048754600000393;37
49;S06;A;pre;1;59.695077544482615;[0.017298099999607075, 0.01742279999962193, 0.01596630000130972, 0.017373700000462122];50;2;0.05076280000139377;3.tif;mask.tiff;-0.14;left;['left'];0.3073535000003176;0;2.023;4.189935499998683;36
50;S06;A;pre;1;59.695077544482615;[0.01712309999857098, 0.01731890000155545, 0.015948500000376953, 0.016640099998767255];53;2;0.049907500000699656;7.tif;mask.tiff;0.14;right;['right'];0.2584392000026128;1;2.136;4.241202299999713;39
51;S06;A;pre;1;59.695077544482615;[0.01679869999861694, 0.016758500001742505, 0.016560299998673145, 0.016983600002276944];63;3;0.05030240000269259;8.tif;mask.tiff;0.14;right;['right'];0.6124909999998636;0;1.105;3.5626193000025523;57
52;S06;A;pre;1;59.695077544482615;[0.016925600000831764, 0.016509299999597715, 0.017075499999918975, 0.016201400001591537];23;3;0.04978620000110823;8.tif;mask.tiff;0.14;right;['right'];0.27251819999946747;0;0.699;2.8052779999998165;57
53;S06;A;pre;1;59.695077544482615;[0.017026900000928435, 0.016367100000934443, 0.01652009999816073, 0.017159700000775047];19;3;0.05004689999987022;3.tif;mask.tiff;0.14;left;['left'];0.26034989999971003;0;0.848;2.943369699998584;53
54;S06;A;pre;1;59.695077544482615;[0.01456039999902714, 0.01715600000170525, 0.016252199999144068, 0.01677910000216798];64;4;0.0501873000030173;2.tif;mask.tiff;-0.14;left;['left'];0.12278080000032787;0;0.614;2.588900900002045;66
55;S06;A;pre;1;59.695077544482615;[0.013432599997031502, 0.017560000000230502, 0.01568820000102278, 0.016816899998957524];99;5;0.050065100000210805;blank.tiff;mask.tiff;0.14;a;['left'];0.18900869999924907;0;0.615;2.6393881000003603;81
56;S06;A;pre;1;59.695077544482615;[0.01649780000298051, 0.01661029999741004, 0.0170499000014388, 0.016389199998229742];34;5;0.05004939999707858;3.tif;mask.tiff;-0.14;left;['left'];0.15206580000085523;0;1.071;3.6017939999983355;84
57;S06;A;pre;1;59.695077544482615;[0.017329000002064276, 0.016284799999993993, 0.016213800001423806, 0.017162499996629776];85;3;0.049661099998047575;blank.tiff;mask.tiff;0.14;a;['left'];0.31178730000101496;0;0.633;2.7781673000026785;49
58;S06;A;pre;1;59.695077544482615;[0.017404100002750056, 0.016945699997449992, 0.016120300002512522, 0.016937399999733316];71;4;0.05000339999969583;8.tif;mask.tiff;0.14;right;['left'];0.1878223000021535;0;0.614;2.638212099998782;73
59;S06;A;pre;1;59.695077544482615;[0.016809900000225753, 0.016876800000318326, 0.016729099999793107, 0.016831000000820495];74;5;0.05043690000093193;3.tif;mask.tiff;-0.14;left;['left'];0.1321367000018654;0;1.055;3.598947499998758;84
60;S06;A;pre;1;59.695077544482615;[0.01690750000125263, 0.017089699998905417, 0.01677220000055968, 0.016150499999639578];68;4;0.05001239999910467;7.tif;mask.tiff;-0.14;right;['right'];0.8585316999997303;0;1.919;5.2078495000023395;70
61;S06;A;pre;1;59.695077544482615;[0.016690899999957765, 0.017008299997542053, 0.016605600001639687, 0.017220199999428587];12;2;0.05083409999861033;7.tif;mask.tiff;-0.14;right;['right'];0.2975107000020216;1;0.998;3.130978299999697;38
62;S06;A;pre;1;59.695077544482615;[0.017305800000031013, 0.015594599997712066, 0.016553100002056453, 0.017114999998739222];14;2;0.04926269999850774;8.tif;mask.tiff;-0.14;right;['right'];0.42837449999933597;1;0.856;3.1282685000005586;40
63;S06;A;pre;1;59.695077544482615;[0.016548799998417962, 0.01672120000148425, 0.017174900000100024, 0.015605399999913061];17;3;0.049501500001497334;2.tif;mask.tiff;0.14;left;['left'];0.27570470000136993;0;0.778;2.8926453000021866;51
64;S06;A;pre;1;59.695077544482615;[0.016983099998469697, 0.016196900000068126, 0.016724699999031145, 0.01671880000139936];59;3;0.04964040000049863;3.tif;mask.tiff;0.14;left;['left'];0.27143920000162325;0;0.876;2.986948800000391;53
65;S06;A;pre;1;59.695077544482615;[0.01669419999961974, 0.016927100001339568, 0.016733699998439988, 0.01767890000337502];47;1;0.051339700003154576;8.tif;mask.tiff;0.14;right;['right'];0.2616065999973216;0;0.754;2.8605084999981045;25
66;S06;A;pre;1;59.695077544482615;[0.016446500001620734, 0.01678660000106902, 0.016772999999375315, 0.017338400000880938];38;5;0.05089800000132527;8.tif;mask.tiff;-0.14;right;['right'];0.32846040000003995;0;0.683;2.8620885999989696;88
67;S06;A;pre;1;59.695077544482615;[0.016999900002701906, 0.016654600000038045, 0.016902199997275602, 0.016830300002766307];3;1;0.050387100000079954;3.tif;mask.tiff;0.14;left;['left'];0.518076000000292;0;0.765;3.1182143000005453;21
68;S06;A;pre;1;59.695077544482615;[0.016498900000442518, 0.01706999999805703, 0.017017100002703955, 0.016049300000304356];94;3;0.05013640000106534;blank.tiff;mask.tiff;-0.14;a;['right'];0.276106900000741;0;0.73;2.8428096000025107;48
69;S06;A;pre;1;59.695077544482615;[0.01631189999898197, 0.017258800002309727, 0.016840299998875707, 0.01668200000131037];6;1;0.050781100002495805;8.tif;mask.tiff;-0.14;right;['right'];0.2219379000016488;0;0.91;2.9719765999980154;24
70;S06;A;pre;1;59.695077544482615;[0.016233199999987846, 0.017464299999119248, 0.016045299998950213, 0.016833600002428284];26;4;0.050343200000497745;3.tif;mask.tiff;-0.14;left;['left'];0.31528070000058506;0;2.24;4.398198700000648;68
71;S06;A;pre;1;59.695077544482615;[0.016080900000815745, 0.017186699999001576, 0.01596840000274824, 0.016833799996675225];65;4;0.04998889999842504;2.tif;mask.tiff;0.14;left;['left'];1.715869500003464;0;0.898;4.449067199999263;67
72;S06;A;pre;1;59.695077544482615;[0.016705500001990004, 0.015608800000336487, 0.016470099999423837, 0.016976999999315012];4;1;0.049055899999075336;7.tif;mask.tiff;-0.14;right;['right'];0.24859619999915594;0;0.935;3.017107200001192;22
73;S06;A;pre;1;59.695077544482615;[0.01655390000087209, 0.016611799997917842, 0.01717859999916982, 0.016190400001505623];95;3;0.049980799998593284;blank.tiff;mask.tiff;0.14;a;['left'];0.6365103999996791;0;0.75;3.2201047999988077;49
74;S06;A;pre;1;59.695077544482615;[0.016807600000902312, 0.01652760000069975, 0.016695199999958277, 0.016752999999880558];72;5;0.049975800000538584;2.tif;mask.tiff;-0.14;left;['left'];0.7696658999993815;0;0.866;3.4701715000010154;82
75;S06;A;pre;1;59.695077544482615;[0.01676979999683681, 0.016673699999955716, 0.016891300001589116, 0.016453200001706136];13;2;0.05001820000325097;7.tif;mask.tiff;0.14;right;['left'];0.38693960000091465;0;0.763;2.9873572000033164;39
76;S06;A;pre;1;59.695077544482615;[0.01684450000175275, 0.0163990000000922, 0.016720299998269184, 0.01782160000220756];5;1;0.050940900000568945;7.tif;mask.tiff;0.14;right;['left'];0.23980070000106934;0;0.898;2.9902643999994325;23
77;S06;A;pre;1;59.695077544482615;[0.016733799999201437, 0.01679109999895445, 0.016457600002468098, 0.016730299998016562];24;4;0.04997899999943911;2.tif;mask.tiff;-0.14;left;['left'];0.922076200000447;0;1.739;4.504843999999139;66
78;S06;A;pre;1;59.695077544482615;[0.016295800000079907, 0.017464500000642147, 0.01656899999943562, 0.01623910000125761];28;4;0.05027260000133538;7.tif;mask.tiff;-0.14;right;['right'];0.2724006999997073;0;0.933;3.0393096000007063;70
79;S06;A;pre;1;59.695077544482615;[0.017328700003417907, 0.01545119999718736, 0.017063900002540322, 0.016879699996934505];55;2;0.049394799996662186;8.tif;mask.tiff;0.14;right;['right'];0.47843730000022333;0;0.805;3.111699100001715;41
80;S06;A;pre;1;59.695077544482615;[0.017239900000276975, 0.0161523999995552, 0.01684689999819966, 0.01630980000118143];61;3;0.04930909999893629;7.tif;mask.tiff;0.14;right;['right'];0.2318176000007952;1;1.308;3.382085500001267;55
81;S06;A;pre;1;59.695077544482615;[0.017704599998978665, 0.01602450000063982, 0.016255599999567494, 0.017285599999013357];54;2;0.04956569999922067;8.tif;mask.tiff;-0.14;right;['right'];0.258175900002243;0;1.712;3.808861000001343;40
82;S06;A;pre;1;59.695077544482615;[0.016619800000626128, 0.016756400000303984, 0.016925499996432336, 0.016641600002913037];79;5;0.05032349999964936;8.tif;mask.tiff;0.14;right;['right'];0.3011415000000852;1;1.698;3.8340014000023075;89
83;S06;A;pre;1;59.695077544482615;[0.01555960000041523, 0.017205600001034327, 0.016236699997534743, 0.01747570000225096];39;5;0.05091800000082003;8.tif;mask.tiff;0.14;right;['left'];1.1445758000008937;0;0.822;3.811257099998329;89
84;S06;A;pre;1;59.695077544482615;[0.016802699999971082, 0.016491899998072768, 0.017346200002066325, 0.01668489999792655];7;1;0.05052299999806564;8.tif;mask.tiff;0.14;right;['right'];0.4986489000002621;0;0.849;3.18178330000228;25
85;S06;A;pre;1;59.695077544482615;[0.016487500000948785, 0.01691489999939222, 0.016785700001491932, 0.016785600000730483];75;5;0.050486200001614634;3.tif;mask.tiff;0.14;left;['right'];1.2780801000008069;0;2.212;5.328592400001071;85
86;S06;A;pre;1;59.695077544482615;[0.017368400000123074, 0.01596380000046338, 0.01682309999887366, 0.017179800001031253];15;2;0.04996670000036829;8.tif;mask.tiff;0.14;right;['right'];0.5137230000000272;0;1.081;3.430476199999248;41
87;S06;A;pre;1;59.695077544482615;[0.01629319999847212, 0.017002399999910267, 0.016369400000257883, 0.01669960000072024];51;2;0.05007140000088839;3.tif;mask.tiff;0.14;left;['left'];0.4053765000026033;0;1.153;3.405914099999791;37
88;S06;A;pre;1;59.695077544482615;[0.016959699998551514, 0.016823900001327274, 0.01734529999885126, 0.015340800000558374];77;5;0.04951000000073691;7.tif;mask.tiff;0.14;right;['right'];0.5397258000011789;0;1.498;3.8730976000006194;87
89;S06;A;pre;1;59.695077544482615;[0.016416700000263518, 0.017077900000003865, 0.017087899999751244, 0.0164401000001817];25;4;0.05060589999993681;2.tif;mask.tiff;0.14;left;['left'];0.6617093000022578;1;0.788;3.2959182000013243;67
90;S06;A;pre;1;59.695077544482615;[0.016328300000168383, 0.01693380000142497, 0.016025399996578926, 0.016492100003233645];62;3;0.04945130000123754;8.tif;mask.tiff;-0.14;right;['left'];0.31319079999957466;0;1.13;3.2797514000012598;56
91;S06;A;pre;1;59.695077544482615;[0.01695089999702759, 0.014922800000931602, 0.0180395999996108, 0.016425100002379622];80;1;0.049387500002922025;blank.tiff;mask.tiff;-0.14;a;['left'];0.38347950000024866;0;0.89;3.116194700000051;16
92;S06;A;pre;1;59.695077544482615;[0.011996500001259847, 0.016129299998283386, 0.017465799999627052, 0.016158500002347864];43;1;0.0497536000002583;3.tif;mask.tiff;0.14;left;['left'];0.20169000000169035;0;0.795;2.83468890000222;21
93;S06;A;pre;1;59.695077544482615;[0.01625400000193622, 0.017230800000106683, 0.01645479999933741, 0.016907799999898998];78;5;0.05059339999934309;8.tif;mask.tiff;-0.14;right;['right'];0.22673960000247462;0;0.979;3.0434600000007777;88
94;S06;A;pre;1;59.695077544482615;[0.01580610000019078, 0.01691009999922244, 0.016681599998264574, 0.016681299999618204];31;4;0.05027299999710522;8.tif;mask.tiff;0.14;right;['right'];0.30541299999822513;0;0.807;2.955995799999073;73
95;S06;A;pre;1;59.695077544482615;[0.013618699998914963, 0.019021500000235392, 0.015219500000966946, 0.015703799999755574];33;5;0.04994480000095791;2.tif;mask.tiff;0.14;left;['left'];0.6182044000015594;0;0.762;3.2177808999986155;83
96;S06;A;pre;1;59.695077544482615;[0.01576720000230125, 0.01687300000048708, 0.01664109999910579, 0.0166919000002963];57;3;0.05020599999988917;2.tif;mask.tiff;0.14;left;['left'];0.30906529999992927;0;0.848;2.9927829000007478;51
97;S06;A;pre;1;59.695077544482615;[0.016443799999251496, 0.017292700002144556, 0.016463899999507703, 0.016964300000836374];40;1;0.050720900002488634;2.tif;mask.tiff;-0.14;left;['left'];0.3424502999987453;0;0.742;2.9253826000021945;18
98;S06;A;pre;1;59.695077544482615;[0.017141000000265194, 0.01638890000322135, 0.017024799999489915, 0.016492799997649854];69;4;0.04990650000036112;7.tif;mask.tiff;0.14;right;['right'];0.38114689999929396;0;0.883;3.0979402999982995;71
99;S06;A;pre;1;59.695077544482615;[0.016799699998955475, 0.01659269999800017, 0.016265400001429953, 0.0170360999982222];66;4;0.04989419999765232;3.tif;mask.tiff;-0.14;left;['right'];0.3991561000002548;0;0.763;2.999370199999248;68
100;S06;A;pre;2;59.695077544482615;[0.016976100003375905, 0.016637400000035996, 0.01616739999735728, 0.017282900000282098];87;4;0.05008769999767537;blank.tiff;mask.tiff;0.14;a;['left'];0.32300199999735923;0;0.738;2.889711299998453;65
101;S06;A;pre;2;59.695077544482615;[0.016540600001462735, 0.01656359999833512, 0.016738900001655566, 0.015933099999529077];23;3;0.049235599999519764;8.tif;mask.tiff;0.14;right;['right'];0.6489031999990402;0;0.751;3.2316350000000966;57
102;S06;A;pre;2;59.695077544482615;[0.016760599999543047, 0.016028000001824694, 0.017493499999545747, 0.01712240000051679];32;5;0.05064390000188723;2.tif;mask.tiff;-0.14;left;['left'];0.3158459000005678;0;1.467;3.6324096000025747;82
103;S06;A;pre;2;59.695077544482615;[0.01658799999859184, 0.01671340000029886, 0.01667000000088592, 0.01642089999950258];78;5;0.04980430000068736;8.tif;mask.tiff;-0.14;right;['right'];0.26503369999772985;0;2.175;4.281079299998964;88
104;S06;A;pre;2;59.695077544482615;[0.015244999998685671, 0.01735760000156006, 0.016807799998787232, 0.016308700000081444];89;5;0.050474100000428734;blank.tiff;mask.tiff;0.14;a;['right'];0.9961943999987852;0;0.879;3.7131989000008616;81
105;S06;A;pre;2;59.695077544482615;[0.016574900000705384, 0.01636089999738033, 0.01672830000097747, 0.017045600001438288];25;4;0.05013479999979609;2.tif;mask.tiff;0.14;left;['left'];0.18862389999776497;0;1.061;3.0881511000006867;67
106;S06;A;pre;2;59.695077544482615;[0.015025400000013178, 0.01685640000141575, 0.01630509999813512, 0.01686800000243238];20;3;0.05002950000198325;7.tif;mask.tiff;-0.14;right;['right'];0.6709120000014082;0;1.323;3.8371483999981137;54
107;S06;A;pre;2;59.695077544482615;[0.016274300000077346, 0.017246999999770196, 0.01625630000125966, 0.0165376999975706];53;2;0.050040999998600455;7.tif;mask.tiff;0.14;right;['right'];0.6220951999966928;0;0.954;3.4056157000013627;39
108;S06;A;pre;2;59.695077544482615;[0.015037599998322548, 0.01687330000277143, 0.01641389999713283, 0.01661969999986468];2;1;0.04990689999976894;3.tif;mask.tiff;-0.14;left;['left'];0.19761960000323597;0;0.834;2.8809220000002824;20
109;S06;A;pre;2;59.695077544482615;[0.017147999998996966, 0.01708409999992, 0.016235499999311287, 0.017225100000359816];91;1;0.0505446999995911;blank.tiff;mask.tiff;0.14;a;['left'];0.9607705999987957;0;1.116;3.9111818999990646;17
110;S06;A;pre;2;59.695077544482615;[0.017032699997798773, 0.0160701999993762, 0.01832510000167531, 0.015707200000179];41;1;0.05010250000123051;2.tif;mask.tiff;0.14;left;['left'];0.4334323000002769;0;1.28;3.5498186000004353;19
111;S06;A;pre;2;59.695077544482615;[0.01667230000020936, 0.017096899999160087, 0.01585940000222763, 0.01703300000008312];13;2;0.04998930000147084;7.tif;mask.tiff;0.14;right;['right'];0.6268342000003031;0;1.315;3.7766860999981873;39
112;S06;A;pre;2;59.695077544482615;[0.016049300000304356, 0.016605200002231868, 0.016878899998118868, 0.016354999999748543];33;5;0.04983910000009928;2.tif;mask.tiff;0.14;left;['left'];0.3248235000028217;0;0.945;3.107878400001937;83
113;S06;A;pre;2;59.695077544482615;[0.016402600002038525, 0.016892199997528223, 0.016634500003419816, 0.016594799999438692];6;1;0.05012150000038673;8.tif;mask.tiff;-0.14;right;['right'];0.3241310000012163;0;0.945;3.1067470999987563;24
114;S06;A;pre;2;59.695077544482615;[0.015277000002242858, 0.017121400000178255, 0.016627999997581355, 0.01632149999932153];47;1;0.05007089999708114;8.tif;mask.tiff;0.14;right;['right'];0.684108000001288;0;1.292;3.817064200000459;25
115;S06;A;pre;2;59.695077544482615;[0.01680580000174814, 0.016413199999078643, 0.017396600000211038, 0.016105399998195935];56;3;0.049915199997485615;2.tif;mask.tiff;-0.14;left;['left'];0.4791527000015776;0;0.865;3.178773199997522;50
116;S06;A;pre;2;59.695077544482615;[0.016433300002972828, 0.016472600000270177, 0.01699689999804832, 0.016828799998620525];98;5;0.05029829999693902;blank.tiff;mask.tiff;-0.14;a;['left'];0.30454099999769824;0;0.877;3.021091800001159;80
117;S06;A;pre;2;59.695077544482615;[0.01667240000097081, 0.017640800000663148, 0.015388600000733277, 0.01702870000008261];4;1;0.05005810000147903;7.tif;mask.tiff;-0.14;right;['right'];0.3033644999995886;0;0.772;2.9203825000004144;22
118;S06;A;pre;2;59.695077544482615;[0.01690999999846099, 0.017355500000121538, 0.016373500002373476, 0.01647149999917019];59;3;0.050200500001665205;3.tif;mask.tiff;0.14;left;['left'];0.18177279999872553;0;0.725;2.7486318000010215;53
119;S06;A;pre;2;59.695077544482615;[0.01496450000195182, 0.016180200000235345, 0.017262599998502992, 0.016027800000301795];55;2;0.04947059999904013;8.tif;mask.tiff;0.14;right;['right'];0.2444900000009511;0;1.829;3.911872399999993;41
120;S06;A;pre;2;59.695077544482615;[0.016563299999688752, 0.016474900003231596, 0.017026599998644087, 0.01629540000067209];35;5;0.04979690000254777;3.tif;mask.tiff;0.14;left;['right'];1.835095900001761;0;1.065;4.7347319000000425;85
121;S06;A;pre;2;59.695077544482615;[0.01642319999882602, 0.016820700002426747, 0.016379999997298, 0.017381000001478242];14;2;0.05058170000120299;8.tif;mask.tiff;-0.14;right;['right'];0.2521698999989894;0;1.115;3.2028495999984443;40
122;S06;A;pre;2;59.695077544482615;[0.01654929999858723, 0.017237800002476433, 0.016808899999887217, 0.016003400000045076];77;5;0.050050100002408726;7.tif;mask.tiff;0.14;right;['right'];0.45271080000020447;0;0.8;3.0853529999985767;87
123;S06;A;pre;2;59.695077544482615;[0.017223400001967093, 0.016141200001584366, 0.017256799997994676, 0.016161399998964043];64;4;0.049559399998543086;2.tif;mask.tiff;-0.14;left;['left'];0.36196859999836306;0;0.848;3.0450376000007964;66
124;S06;A;pre;2;59.695077544482615;[0.0150394000011147, 0.016806699997687247, 0.016797700001916382, 0.016696299997420283];11;2;0.05030069999702391;3.tif;mask.tiff;0.14;left;['left'];0.22398529999918537;0;0.889;2.9567291000021214;37
125;S06;A;pre;2;59.695077544482615;[0.017099600001529325, 0.016291700001602294, 0.016773099996498786, 0.01722150000205147];84;3;0.05028630000015255;blank.tiff;mask.tiff;-0.14;a;['left'];0.6528650000000198;0;1.077;3.5694174000018393;48
126;S06;A;pre;2;59.695077544482615;[0.0168322999998054, 0.016700399999535875, 0.01678420000098413, 0.01652979999926174];85;3;0.050014399999781745;blank.tiff;mask.tiff;0.14;a;['left'];0.4796289000005345;0;0.711;3.029880800000683;49
127;S06;A;pre;2;59.695077544482615;[0.016523799997230526, 0.016246900002443, 0.016939499997533858, 0.016697200000635348];26;4;0.049883600000612205;3.tif;mask.tiff;-0.14;left;['left'];0.4373018000005686;0;0.762;3.0371618999997736;68
128;S06;A;pre;2;59.695077544482615;[0.016869100003532367, 0.016475099997478537, 0.01691670000218437, 0.016901899998629233];30;4;0.05029369999829214;8.tif;mask.tiff;-0.14;right;['right'];0.35087249999924097;0;0.943;3.1341375000010885;72
129;S06;A;pre;2;59.695077544482615;[0.015848399998503737, 0.01660030000130064, 0.01741300000139745, 0.01639939999950002];17;3;0.05041270000219811;2.tif;mask.tiff;0.14;left;['left'];0.21620599999732804;0;0.826;2.882746200000838;51
130;S06;A;pre;2;59.695077544482615;[0.0163923000000068, 0.01710610000009183, 0.016434500001196284, 0.016935199997533346];80;1;0.05047579999882146;blank.tiff;mask.tiff;-0.14;a;['left'];0.4506952999981877;0;0.738;3.033601600000111;16
131;S06;A;pre;2;59.695077544482615;[0.016518899999937275, 0.016373700000258395, 0.016956200001004618, 0.016625000000203727];7;1;0.04995490000146674;8.tif;mask.tiff;0.14;right;['right'];0.2839034000026004;0;0.705;2.833492400000978;25
132;S06;A;pre;2;59.695077544482615;[0.016628699999273522, 0.016412000000855187, 0.01684699999896111, 0.01647690000027069];34;5;0.049735900000086986;3.tif;mask.tiff;-0.14;left;['left'];0.28066390000094543;0;0.813;2.9302382999994734;84
133;S06;A;pre;2;59.695077544482615;[0.01685209999777726, 0.017803999999159714, 0.01564950000101817, 0.01687600000150269];42;1;0.05032950000168057;3.tif;mask.tiff;-0.14;left;['left'];0.185851599999296;0;0.686;2.719247799999721;20
134;S06;A;pre;2;59.695077544482615;[0.015776899999764282, 0.017019799997797236, 0.016717100003006635, 0.016446899997390574];48;2;0.050183799998194445;2.tif;mask.tiff;-0.14;left;['left'];0.16258509999897797;0;0.805;2.8124927999997453;34
135;S06;A;pre;2;59.695077544482615;[0.016545900001801783, 0.016613399999187095, 0.01684920000116108, 0.016904099997191224];24;4;0.0503666999975394;2.tif;mask.tiff;-0.14;left;['left'];0.19888910000008764;0;0.765;2.7991512999979022;66
136;S06;A;pre;2;59.695077544482615;[0.01689249999981257, 0.016622600000118837, 0.017172800002299482, 0.016432199998234864];22;3;0.05022760000065318;8.tif;mask.tiff;-0.14;right;['right'];0.23010749999957625;0;1.045;3.113205600002402;56
137;S06;A;pre;2;59.695077544482615;[0.015104199999768753, 0.017334299998765346, 0.01562779999949271, 0.0180465000012191];95;3;0.051008599999477156;blank.tiff;mask.tiff;0.14;a;['left'];0.9255001999990782;0;0.787;3.5585882000013953;49
138;S06;A;pre;2;59.695077544482615;[0.016717999998945743, 0.01669890000266605, 0.01660709999850951, 0.017133000001194887];99;5;0.05043900000237045;blank.tiff;mask.tiff;0.14;a;['left'];0.5283871999999974;0;1.061;3.4285988000010548;81
139;S06;A;pre;2;59.695077544482615;[0.015837300001294352, 0.016898199999559438, 0.01589610000155517, 0.017523799997434253];18;3;0.05031809999854886;3.tif;mask.tiff;-0.14;left;['left'];0.3512879999980214;0;0.731;2.918009400000301;52
140;S06;A;pre;2;59.695077544482615;[0.01698240000041551, 0.01660999999876367, 0.01637770000161254, 0.016304199998558033];86;4;0.04929189999893424;blank.tiff;mask.tiff;-0.14;a;['left'];0.14377389999935986;0;1.015;2.9936515000008512;64
141;S06;A;pre;2;59.695077544482615;[0.016247399998974288, 0.016739599999709753, 0.017131300002802163, 0.016997999999148306];62;3;0.05086890000166022;8.tif;mask.tiff;-0.14;right;['right'];0.16204429999925196;0;0.988;2.995374999998603;56
142;S06;A;pre;2;59.695077544482615;[0.020450200001505436, 0.012541000000055647, 0.017209199999342673, 0.016746599998441525];54;2;0.046496799997839844;8.tif;mask.tiff;-0.14;right;['right'];0.1490211000018462;0;1.032;3.0155573999982153;40
143;S06;A;pre;2;59.695077544482615;[0.01633629999923869, 0.01702790000126697, 0.016475000000355067, 0.016938099997787504];61;3;0.05044099999940954;7.tif;mask.tiff;0.14;right;['right'];0.49664409999968484;1;0.762;3.0970122999970044;55
144;S06;A;pre;2;59.695077544482615;[0.016548600000533042, 0.016275099998892983, 0.017498400000476977, 0.016540199998416938];15;2;0.0503136999977869;8.tif;mask.tiff;0.14;right;['right'];0.43641850000130944;0;0.797;3.0706323999984306;41
145;S06;A;pre;2;59.695077544482615;[0.015498999997362262, 0.01762830000006943, 0.016059000001405366, 0.01672559999860823];65;4;0.05041290000008303;2.tif;mask.tiff;0.14;left;['left'];0.29104430000006687;1;0.848;2.9743188000029477;67
146;S06;A;pre;2;59.695077544482615;[0.01569220000237692, 0.016543800000363262, 0.0171831999978167, 0.01672040000266861];69;4;0.050447400000848575;7.tif;mask.tiff;0.14;right;['right'];0.32986240000172984;1;0.729;2.8965181999992637;71
147;S06;A;pre;2;59.695077544482615;[0.015606400000251597, 0.016996199999994133, 0.015859200000704732, 0.01786299999730545];40;1;0.050718399998004315;2.tif;mask.tiff;-0.14;left;['left'];0.18783930000063265;1;0.631;2.6710999999995693;18
148;S06;A;pre;2;59.695077544482615;[0.0165634000004502, 0.01678650000030757, 0.016891999999643303, 0.016487299999425886];96;4;0.05016579999937676;blank.tiff;mask.tiff;-0.14;a;['left'];0.2976387999988219;0;0.845;2.9813524000019243;64
149;S06;A;pre;2;59.695077544482615;[0.01705529999890132, 0.01622240000142483, 0.017080900001019472, 0.01634889999695588];82;2;0.04965219999940018;blank.tiff;mask.tiff;-0.14;a;['left'];0.1494544000015594;0;0.804;2.7998262000000977;32
150;S06;A;pre;2;59.695077544482615;[0.017020400002365932, 0.016253499998128973, 0.017319999999017455, 0.016652400001476053];67;4;0.05022589999862248;3.tif;mask.tiff;0.14;left;['left'];0.19483920000129729;0;0.721;2.7617133999992802;69
151;S06;A;pre;2;59.695077544482615;[0.016635100000712555, 0.016511900001205504, 0.01641849999941769, 0.016641899997921428];72;5;0.04957229999854462;2.tif;mask.tiff;-0.14;left;['left'];0.20954900000288035;0;0.888;2.9431624000026204;82
152;S06;A;pre;2;59.695077544482615;[0.0157896000018809, 0.01711029999933089, 0.01668190000054892, 0.016592100000707433];58;3;0.050384300000587245;3.tif;mask.tiff;-0.14;left;['left'];0.180579800002306;0;0.91;2.930852000001323;52
153;S06;A;pre;2;59.695077544482615;[0.016419499999756226, 0.016484600000694627, 0.017178999998577638, 0.016539000000193482];44;1;0.05020259999946575;7.tif;mask.tiff;-0.14;right;['right'];0.1664582999983395;1;0.991;2.9995752000031644;22
154;S06;A;pre;2;59.695077544482615;[0.01630220000151894, 0.017002299999148818, 0.01662660000147298, 0.01632679999966058];83;2;0.04995570000028238;blank.tiff;mask.tiff;0.14;a;['left'];0.19436899999709567;0;0.73;2.7611920000017562;33
155;S06;A;pre;2;59.695077544482615;[0.02056340000126511, 0.012593999999808148, 0.017063200000848155, 0.016025799999624724];73;5;0.04568300000028103;2.tif;mask.tiff;0.14;left;['left'];0.13580179999917164;0;0.892;2.869307100001606;83
156;S06;A;pre;2;59.695077544482615;[0.01635309999983292, 0.01696989999982179, 0.016494100000272738, 0.016957799998635892];8;2;0.05042179999873042;2.tif;mask.tiff;-0.14;left;['left'];0.286968500000512;0;0.726;2.8539988000011363;34
157;S06;A;pre;2;59.695077544482615;[0.015780699999595527, 0.017029999999067513, 0.01647690000027069, 0.01662140000189538];92;2;0.05012830000123358;blank.tiff;mask.tiff;-0.14;a;['left'];0.16431220000231406;0;0.76;2.7637816999995266;32
158;S06;A;pre;2;59.695077544482615;[0.004327900001953822, 0.01637539999865112, 0.016497500000696164, 0.017239400000107707];63;3;0.05011229999945499;8.tif;mask.tiff;0.14;right;['right'];0.11178089999884833;1;0.958;2.927658499997051;57
159;S06;A;pre;2;59.695077544482615;[0.01636560000042664, 0.01751900000090245, 0.015768900000693975, 0.019500599999446422];52;2;0.05278850000104285;7.tif;mask.tiff;-0.14;right;['right'];1.6837309000002278;1;0.855;4.367216899998311;38
160;S06;A;pre;2;59.695077544482615;[0.01730600000155391, 0.016760799997427966, 0.016378000000258908, 0.01671870000063791];97;4;0.049857499998324784;blank.tiff;mask.tiff;0.14;a;['left'];0.8247043000010308;0;3.405;6.074856999999611;65
161;S06;A;pre;2;59.695077544482615;[0.016637199998513097, 0.015587400001095375, 0.0168736000014178, 0.017101800000091316];46;1;0.04956280000260449;8.tif;mask.tiff;-0.14;right;['left'];0.351636100000178;0;0.988;3.1845737999974517;24
162;S06;A;pre;2;59.695077544482615;[0.016497699998581083, 0.01635050000186311, 0.016497599997819634, 0.01664780000282917];81;1;0.04949590000251192;blank.tiff;mask.tiff;0.14;a;['left'];0.526085299999977;0;0.913;3.2757272999988345;17
163;S06;A;pre;2;59.695077544482615;[0.01666069999919273, 0.016458199999760836, 0.016412599998147925, 0.016635600000881823];88;5;0.049506399998790585;blank.tiff;mask.tiff;-0.14;a;['right'];0.7573426999988442;0;0.867;3.4744648999985657;80
164;S06;A;pre;2;59.695077544482615;[0.016913399998884415, 0.01675270000123419, 0.01651329999731388, 0.01629980000143405];57;3;0.04956579999998212;2.tif;mask.tiff;0.14;left;['left'];0.17618710000169813;1;0.696;2.7776983000003383;51
165;S06;A;pre;2;59.695077544482615;[0.015894899999693735, 0.016668500000378117, 0.01623710000058054, 0.016540599997824756];28;4;0.04944619999878341;7.tif;mask.tiff;-0.14;right;['right'];0.30241640000167536;1;0.72;2.869108499999129;70
166;S06;A;pre;2;59.695077544482615;[0.016521100002137246, 0.01669899999978952, 0.016990999996778555, 0.016512100002728403];94;3;0.05020209999929648;blank.tiff;mask.tiff;-0.14;a;['left'];0.2516966000002867;0;0.985;3.0685879000011482;48
167;S06;A;pre;2;59.695077544482615;[0.017440200001146877, 0.016605500000878237, 0.01716379999925266, 0.015536700000666315];70;4;0.04930600000079721;8.tif;mask.tiff;-0.14;right;['right'];0.18600090000109049;1;0.618;2.636319999997795;72
168;S06;A;pre;2;59.695077544482615;[0.016690000000380678, 0.01692209999964689, 0.016642099999444326, 0.017381099998601712];29;4;0.05094529999769293;7.tif;mask.tiff;0.14;right;['right'];0.2114925999994739;1;0.795;2.845295300001453;71
169;S06;A;pre;2;59.695077544482615;[0.01680579999811016, 0.016991500000585802, 0.015923999999358784, 0.018532100002630614];49;2;0.0514476000025752;2.tif;mask.tiff;0.14;left;['left'];0.12055040000268491;1;0.692;2.653818800001318;35
170;S06;A;pre;2;59.695077544482615;[0.016603300002316246, 0.016623100000288105, 0.016262799999822164, 0.017123300000093877];76;5;0.050009200000204146;7.tif;mask.tiff;-0.14;right;['right'];0.15395930000158842;1;0.868;2.871012999999948;86
171;S06;A;pre;2;59.695077544482615;[0.016530899996723747, 0.016966000002867077, 0.016560399999434594, 0.016756400000303984];75;5;0.050282800002605654;3.tif;mask.tiff;0.14;left;['left'];0.1506081000006816;1;0.732;2.7162946999997075;85
172;S06;A;pre;2;59.695077544482615;[0.016342700000677723, 0.016090799999801675, 0.017233300000953022, 0.01694839999981923];36;5;0.05027250000057393;7.tif;mask.tiff;-0.14;right;['right'];0.1650337999999465;1;0.681;2.6983782000024803;86
173;S06;A;pre;2;59.695077544482615;[0.01580870000179857, 0.017818600001191953, 0.0157480999987456, 0.016904200001590652];51;2;0.05047090000152821;3.tif;mask.tiff;0.14;left;['left'];0.0790160000033211;1;0.784;2.7125966000021435;37
174;S06;A;pre;2;59.695077544482615;[0.014554099998349557, 0.01685200000065379, 0.016953999998804647, 0.017039700000168523];93;2;0.05084569999962696;blank.tiff;mask.tiff;0.14;a;['left'];0.23474929999792948;0;1.036;3.1147149999997055;33
175;S06;A;pre;2;59.695077544482615;[0.01555250000092201, 0.016080299999885028, 0.01719769999908749, 0.01680349999878672];9;2;0.05008149999775924;2.tif;mask.tiff;0.14;left;['left'];1.3434163999991142;1;0.88;4.059939999999187;35
176;S06;A;pre;2;59.695077544482615;[0.017949599998246413, 0.015677600000344682, 0.016598500002146466, 0.016192099999898346];74;5;0.048468200002389494;3.tif;mask.tiff;-0.14;left;['left'];0.18455199999880278;1;0.655;2.68486699999994;84
177;S06;A;pre;2;59.695077544482615;[0.016713199998775963, 0.01615500000116299, 0.017929599998751655, 0.01567580000119051];12;2;0.049760400001105154;7.tif;mask.tiff;-0.14;right;['right'];0.382318200001464;1;0.661;2.8829250000017055;38
178;S06;A;pre;2;59.695077544482615;[0.016102300000056857, 0.01721470000120462, 0.016620599999441765, 0.01616220000141766];1;1;0.049997500002064044;2.tif;mask.tiff;0.14;left;['left'];0.17263699999966775;1;0.676;2.688636300001235;19
179;S06;A;pre;2;59.695077544482615;[0.016281299998809118, 0.017056500000762753, 0.016465499997138977, 0.016221400001086295];50;2;0.049743399998988025;3.tif;mask.tiff;-0.14;left;['left'];0.6806744999994407;1;1.174;3.697524600000179;36
180;S06;A;pre;2;59.695077544482615;[0.01674790000106441, 0.0175634999977774, 0.016233300000749296, 0.016183399999135872];10;2;0.04998019999766257;3.tif;mask.tiff;-0.14;left;['left'];0.3206371999986004;1;0.705;2.870581499999389;36
181;S06;A;pre;2;59.695077544482615;[0.01627139999982319, 0.0168852999995579, 0.016591999999945983, 0.017730700001266086];90;1;0.05120800000076997;blank.tiff;mask.tiff;-0.14;a;['left'];0.4926785999996355;0;0.816;3.1425930000004882;16
182;S06;A;pre;2;59.695077544482615;[0.01651800000036019, 0.016088399999716785, 0.01724839999951655, 0.01686360000167042];37;5;0.050200400000903755;7.tif;mask.tiff;0.14;right;['right'];0.2787133999991056;1;0.847;2.962186799999472;87
183;S06;A;pre;2;59.695077544482615;[0.01603179999801796, 0.01678400000309921, 0.016689000000042142, 0.01743720000013127];27;4;0.05091020000327262;3.tif;mask.tiff;0.14;left;['left'];0.11345649999930174;1;1.672;3.6300431999989087;69
184;S06;A;pre;2;59.695077544482615;[0.01639409999916097, 0.016978800002107164, 0.016601799998170463, 0.01652990000002319];31;4;0.05011050000030082;8.tif;mask.tiff;0.14;right;['right'];0.21974709999994957;0;1.037;3.1025970000009693;73
185;S06;A;pre;2;59.695077544482615;[0.016440800001873868, 0.016451799998321803, 0.01688830000057351, 0.016071000001829816];5;1;0.04941110000072513;7.tif;mask.tiff;0.14;right;['right'];0.2750430999985838;1;0.768;2.8919857000000775;23
186;S06;A;pre;2;59.695077544482615;[0.01610860000073444, 0.017337199999019504, 0.016218600001593586, 0.01689809999879799];19;3;0.05045389999941108;3.tif;mask.tiff;0.14;left;['left'];0.16056870000102208;1;1.246;3.2437159000000975;53
187;S06;A;pre;2;59.695077544482615;[0.01670680000097491, 0.016383000001951586, 0.017128499999671476, 0.01616269999794895];16;3;0.04967419999957201;2.tif;mask.tiff;-0.14;left;['left'];0.25196000000141794;1;0.957;3.0521564000009676;50
188;S06;A;pre;2;59.695077544482615;[0.01688789999752771, 0.01661919999969541, 0.017348299999866867, 0.016988200000923825];68;4;0.050955700000486104;7.tif;mask.tiff;-0.14;right;['left'];0.3191203999995196;1;2.089;4.252806899999996;70
189;S06;A;pre;2;59.695077544482615;[0.017235200000868645, 0.016920099998969818, 0.016168800000741612, 0.01698699999906239];60;3;0.05007589999877382;7.tif;mask.tiff;-0.14;right;['right'];0.42104850000032457;1;0.927;3.1880466000002343;54
190;S06;A;pre;2;59.695077544482615;[0.017087100000935607, 0.017281899999943562, 0.016102500001579756, 0.01650129999688943];21;3;0.04988569999841275;7.tif;mask.tiff;0.14;right;['right'];0.3239333000019542;1;1.247;3.407115900001372;55
191;S06;A;pre;2;59.695077544482615;[0.01663429999825894, 0.017256900002394104, 0.01730429999952321, 0.015763999999762746];0;1;0.05032520000168006;2.tif;mask.tiff;-0.14;left;['left'];0.36442999999781023;1;0.695;2.8979236999985005;18
192;S06;A;pre;2;59.695077544482615;[0.016329800000676187, 0.01681579999785754, 0.016932300000917166, 0.016030599999794504];79;5;0.04977869999856921;8.tif;mask.tiff;0.14;right;['right'];0.84533250000095;1;0.808;3.4947142000019085;89
193;S06;A;pre;2;59.695077544482615;[0.016567400001804344, 0.016448699996544747, 0.017304700002569007, 0.01582119999875431];71;4;0.04957459999786806;8.tif;mask.tiff;0.14;right;['right'];0.2614176999995834;1;0.948;3.0439562999999907;73
194;S06;A;pre;2;59.695077544482615;[0.017670599998382386, 0.01592270000037388, 0.017106300001614727, 0.017008399998303503];3;1;0.05003740000029211;3.tif;mask.tiff;0.14;left;['left'];0.5125736000009056;1;1.635;3.999309599999833;21
195;S06;A;pre;2;59.695077544482615;[0.017313199998170603, 0.01641620000009425, 0.01676669999869773, 0.01680090000081691];39;5;0.04998379999960889;8.tif;mask.tiff;0.14;right;['right'];0.26170529999944847;1;0.805;2.911382700000104;89
196;S06;A;pre;2;59.695077544482615;[0.016293599997879937, 0.017690399999992223, 0.015245300000970019, 0.016947600001003593];45;1;0.049883300001965836;7.tif;mask.tiff;0.14;right;['right'];0.2555874000026961;1;0.744;2.8382443000009516;23
197;S06;A;pre;2;59.695077544482615;[0.00816540000232635, 0.015732599997136276, 0.017039800000929972, 0.01703579999957583];66;4;0.04980819999764208;3.tif;mask.tiff;-0.14;left;['left'];0.40286240000205;1;1.389;3.652716100001271;68
198;S06;A;pre;2;59.695077544482615;[0.016678400003002025, 0.017036999997799285, 0.016252000001259148, 0.01672619999953895];38;5;0.05001519999859738;8.tif;mask.tiff;-0.14;right;['right'];0.3156003000003693;1;1.01;3.1654595999971207;88
199;S06;A;pre;2;59.695077544482615;[0.01649340000221855, 0.01667989999987185, 0.01723159999892232, 0.016061400001490256];43;1;0.049972900000284426;3.tif;mask.tiff;0.14;left;['left'];0.2445852000018931;1;0.902;2.978043600000092;21
200;S06;A;pre;3;59.695077544482615;[0.016918699999223463, 0.017660699999396456, 0.01565190000110306, 0.017675200000667246];18;3;0.05098780000116676;3.tif;mask.tiff;-0.14;left;['left'];0.6600561999985075;1;1.415;3.9093573999998625;52
201;S06;A;pre;3;59.695077544482615;[0.01281859999653534, 0.017125500002293848, 0.015636100000847364, 0.016860399999131914];65;4;0.049622000002273126;2.tif;mask.tiff;0.14;left;['left'];0.5455685999986599;1;1.243;3.6283651999983704;67
202;S06;A;pre;3;59.695077544482615;[0.01625919999787584, 0.017204300002049422, 0.016010899998946115, 0.016995300000417046];67;4;0.050210500001412584;3.tif;mask.tiff;0.14;left;['right'];0.4920094000008248;0;1.179;3.5082575999986148;69
203;S06;A;pre;3;59.695077544482615;[0.016970999997283798, 0.016888400001334958, 0.016847599999891827, 0.016553199999179924];63;3;0.05028920000040671;8.tif;mask.tiff;0.14;right;['right'];0.5941801000008127;1;0.977;3.4104520000000775;57
204;S06;A;pre;3;59.695077544482615;[0.016776299999037292, 0.017098000000260072, 0.0161521999980323, 0.016949100001511397];98;5;0.05019929999980377;blank.tiff;mask.tiff;-0.14;a;['left'];0.7718921999985469;0;1.018;3.638403799999651;80
205;S06;A;pre;3;59.695077544482615;[0.01671100000021397, 0.01638970000203699, 0.016913499999645865, 0.016698100000212435];33;5;0.05000130000189529;2.tif;mask.tiff;0.14;left;['left'];0.39260359999752836;1;0.94;3.1764409999996133;83
206;S06;A;pre;3;59.695077544482615;[0.017588300001079915, 0.016867099999217317, 0.016411900000093738, 0.016674099999363534];17;3;0.04995309999867459;2.tif;mask.tiff;0.14;left;['left'];0.5317364000002271;1;1.255;3.647486099998787;51
207;S06;A;pre;3;59.695077544482615;[0.01601989999835496, 0.017283600001974264, 0.016705899997759843, 0.0168271000002278];84;3;0.05081659999996191;blank.tiff;mask.tiff;-0.14;a;['left'];1.2738929000006465;0;0.972;4.089456800000335;48
208;S06;A;pre;3;59.695077544482615;[0.017254400001547765, 0.017290799998590956, 0.01600500000131433, 0.016296800000418443];7;1;0.04959260000032373;8.tif;mask.tiff;0.14;right;['right'];1.111661599999934;1;1.133;4.09506269999838;25
209;S06;A;pre;3;59.695077544482615;[0.016908600002352614, 0.016340700000000652, 0.01687359999777982, 0.016889300000912044];14;2;0.050103599998692516;8.tif;mask.tiff;-0.14;right;['right'];0.37147860000186483;1;1.042;3.2548121999971045;40
210;S06;A;pre;3;59.695077544482615;[0.016695999998773914, 0.016313300002366304, 0.017223599999852013, 0.016408599996793782];68;4;0.0499454999990121;7.tif;mask.tiff;-0.14;right;['right'];0.6711090000026161;1;0.945;3.454953899999964;70
211;S06;A;pre;3;59.695077544482615;[0.01680559999658726, 0.016183200001250952, 0.017056600001524203, 0.016501499998412328];57;3;0.04974130000118748;2.tif;mask.tiff;0.14;left;['left'];0.3289919999988342;1;0.89;3.0618601999995008;51
212;S06;A;pre;3;59.695077544482615;[0.01677459999700659, 0.01678350000292994, 0.016390199998568278, 0.017123400000855327];78;5;0.050297100002353545;8.tif;mask.tiff;-0.14;right;['right'];0.2716560999979265;1;0.906;3.0215056000015466;88
213;S06;A;pre;3;59.695077544482615;[0.01717830000052345, 0.016458399997645756, 0.01666780000232393, 0.02136909999899217];90;1;0.054495299998961855;blank.tiff;mask.tiff;-0.14;a;['left'];0.785935600000812;0;0.904;3.5357976999985112;16
214;S06;A;pre;3;59.695077544482615;[0.01701139999931911, 0.016609199999948032, 0.01697700000295299, 0.01642089999950258];0;1;0.050007100002403604;2.tif;mask.tiff;-0.14;left;['left'];0.311103699998057;1;0.891;3.043905700000323;18
215;S06;A;pre;3;59.695077544482615;[0.015387499999633292, 0.01715899999908288, 0.016236200001003454, 0.016644700001052115];62;3;0.05003990000113845;8.tif;mask.tiff;-0.14;right;['right'];0.2509507999966445;1;0.811;2.9012689999981376;56
216;S06;A;pre;3;59.695077544482615;[0.01712240000051679, 0.016497000000526896, 0.016559499999857508, 0.01650139999765088];1;1;0.04955789999803528;2.tif;mask.tiff;0.14;left;['left'];1.6057621999971161;1;1.297;4.739212399999815;19
217;S06;A;pre;3;59.695077544482615;[0.016915999996854225, 0.016646700001729187, 0.016522000001714332, 0.016589899998507462];31;4;0.04975860000195098;8.tif;mask.tiff;0.14;right;['right'];0.5749886999983573;0;0.968;3.3920790999982273;73
218;S06;A;pre;3;59.695077544482615;[0.01679550000335439, 0.016203899998799898, 0.01721689999976661, 0.016870499999640742];30;4;0.05029129999820725;8.tif;mask.tiff;-0.14;right;['right'];0.2794914999976754;1;1.038;3.162205799999356;72
219;S06;A;pre;3;59.695077544482615;[0.01646700000128476, 0.016192899998713983, 0.016623300001811003, 0.016503999999258667];6;1;0.049320199999783654;8.tif;mask.tiff;-0.14;right;['right'];0.27198929999940447;1;1.158;3.271822200000315;24
220;S06;A;pre;3;59.695077544482615;[0.01679560000047786, 0.016192499999306165, 0.01714179999908083, 0.01752390000183368];75;5;0.05085820000022068;3.tif;mask.tiff;0.14;left;['left'];0.5515631000016583;0;1.608;4.001167300000816;85
221;S06;A;pre;3;59.695077544482615;[0.016204600000492064, 0.01666520000071614, 0.01623939999990398, 0.01701919999686652];82;2;0.04992379999748664;blank.tiff;mask.tiff;-0.14;a;['left'];1.1116447999993397;0;1.065;4.011405099998228;32
222;S06;A;pre;3;59.695077544482615;[0.013601900001958711, 0.01667509999970207, 0.01783849999992526, 0.015437800000654534];88;5;0.049951400000281865;blank.tiff;mask.tiff;-0.14;a;['left'];0.29822989999956917;0;1.024;3.1648400999984005;80
223;S06;A;pre;3;59.695077544482615;[0.017261299999518087, 0.016104800000903197, 0.016394999998738058, 0.016933200000494253];53;2;0.04943300000013551;7.tif;mask.tiff;0.14;right;['right'];0.9216433000001416;1;1.081;3.838123800000176;39
224;S06;A;pre;3;59.695077544482615;[0.01709869999831426, 0.01647190000221599, 0.01646729999993113, 0.01719729999967967];52;2;0.05013650000182679;7.tif;mask.tiff;-0.14;right;['right'];0.3057803999981843;1;1.081;3.2224466999978176;38
225;S06;A;pre;3;59.695077544482615;[0.016591100000368897, 0.017026299999997718, 0.016417099999671336, 0.016524299997399794];2;1;0.04996769999706885;3.tif;mask.tiff;-0.14;left;['left'];0.3026447000011103;1;1.01;3.152065500002209;20
226;S06;A;pre;3;59.695077544482615;[0.01676949999819044, 0.016726699999708217, 0.016083200000139186, 0.016787700002169004];48;2;0.049597600002016407;2.tif;mask.tiff;-0.14;left;['left'];0.3486191999982111;1;0.948;3.1320699999996577;34
227;S06;A;pre;3;59.695077544482615;[0.0172294999974838, 0.015913700000965036, 0.01681050000115647, 0.01718049999908544];87;4;0.04990470000120695;blank.tiff;mask.tiff;0.14;a;['right'];1.918472200002725;0;1.007;4.7687617000010505;65
228;S06;A;pre;3;59.695077544482615;[0.016549999996641418, 0.01672099999996135, 0.016736700003093574, 0.017167699999845354];51;2;0.05062540000290028;3.tif;mask.tiff;0.14;left;['right'];0.23058010000022477;0;0.87;2.9477260999992723;37
229;S06;A;pre;3;59.695077544482615;[0.01610209999853396, 0.017140300002211006, 0.01598059999741963, 0.01680800000031013];43;1;0.04992889999994077;3.tif;mask.tiff;0.14;left;['left'];0.49437549999856856;1;1.986;4.3282073000009404;21
230;S06;A;pre;3;59.695077544482615;[0.016514400002051843, 0.016821299999719486, 0.01725079999960144, 0.01633899999796995];24;4;0.050411099997290876;2.tif;mask.tiff;-0.14;left;['left'];0.577931299998454;1;1.049;3.4615743000031216;66
231;S06;A;pre;3;59.695077544482615;[0.016116899998451117, 0.016852699998707976, 0.016546000002563233, 0.01717379999900004];27;4;0.05057250000027125;3.tif;mask.tiff;0.14;left;['right'];0.24129659999744035;1;0.859;2.9416037000009965;69
232;S06;A;pre;3;59.695077544482615;[0.01711530000102357, 0.01672849999886239, 0.016749300000810763, 0.016417700000602053];79;5;0.049895500000275206;8.tif;mask.tiff;0.14;right;['right'];0.30930520000038086;1;0.866;3.025415399999474;89
233;S06;A;pre;3;59.695077544482615;[0.014804100002947962, 0.01739899999665795, 0.015974300000380026, 0.017170600000099512];10;2;0.05054389999713749;3.tif;mask.tiff;-0.14;left;['left'];0.27033730000039213;1;1.118;3.236875400001736;36
234;S06;A;pre;3;59.695077544482615;[0.016732399999455083, 0.016576300000451738, 0.016788099997938843, 0.01630460000160383];59;3;0.04966899999999441;3.tif;mask.tiff;0.14;left;['left'];0.3482402000008733;1;1.376;3.563881500002026;53
235;S06;A;pre;3;59.695077544482615;[0.01650340000196593, 0.016463299998576986, 0.017374899998685578, 0.01605300000301213];15;2;0.049891200000274694;8.tif;mask.tiff;0.14;right;['right'];0.531794099999388;1;1.631;4.014316099997814;41
236;S06;A;pre;3;59.695077544482615;[0.016477199998917058, 0.016616300003079232, 0.016950299999734852, 0.016095299997687107];89;5;0.04966190000050119;blank.tiff;mask.tiff;0.14;a;['left'];0.8643427999995765;0;1.16;3.86378269999841;81
237;S06;A;pre;3;59.695077544482615;[0.017320799997833092, 0.016256999999313848, 0.017566500002430985, 0.01613759999963804];74;5;0.049961100001382874;3.tif;mask.tiff;-0.14;left;['left'];0.7306889999999839;1;1.712;4.280400699997699;84
238;S06;A;pre;3;59.695077544482615;[0.0169214000015927, 0.016010799998184666, 0.016713299999537412, 0.01698690000193892];97;4;0.049710999999661;blank.tiff;mask.tiff;0.14;a;['left'];1.0736716999999771;0;1.061;3.973970199996984;65
239;S06;A;pre;3;59.695077544482615;[0.015421599997353042, 0.016633300001558382, 0.01741010000114329, 0.01678159999937634];3;1;0.050825000002078013;3.tif;mask.tiff;0.14;left;['left'];0.3248561000000336;1;1.081;3.240665999997873;21
240;S06;A;pre;3;59.695077544482615;[0.01619560000108322, 0.016615900000033434, 0.016867900001670932, 0.01636069999949541];8;2;0.049844500001199776;2.tif;mask.tiff;-0.14;left;['left'];0.4679811999994854;1;1.332;3.6342254000010143;34
241;S06;A;pre;3;59.695077544482615;[0.016554699999687728, 0.016989100000500912, 0.016789900000730995, 0.016409399999247398];99;5;0.050188400000479305;blank.tiff;mask.tiff;0.14;a;['right'];0.5378070000006119;0;1.009;3.387386800000968;81
242;S06;A;pre;3;59.695077544482615;[0.01641119999840157, 0.0166045000005397, 0.016088299998955335, 0.017928700002812548];96;4;0.050621500002307585;blank.tiff;mask.tiff;-0.14;a;['right'];0.6082639999985986;0;0.913;3.357581200001732;64
243;S06;A;pre;3;59.695077544482615;[0.017189700000017183, 0.016940000001341105, 0.0167842999981076, 0.01656830000138143];76;5;0.050292600000830134;7.tif;mask.tiff;-0.14;right;['right'];0.4295118000009097;1;1.463;3.7284815999992134;86
244;S06;A;pre;3;59.695077544482615;[0.016409399999247398, 0.016884699998627184, 0.016615200001979247, 0.01686609999887878];85;3;0.05036599999948521;blank.tiff;mask.tiff;0.14;a;['left'];0.34886180000103195;0;1.025;3.215219600002456;49
245;S06;A;pre;3;59.695077544482615;[0.016990500000247266, 0.016122100001666695, 0.01895909999802825, 0.014352900001540547];39;5;0.04943410000123549;8.tif;mask.tiff;0.14;right;['right'];0.2662521000020206;1;1.086;3.1991701000006287;89
246;S06;A;pre;3;59.695077544482615;[0.017271000000619097, 0.016310200000589248, 0.016708200000721263, 0.016922499999054708];11;2;0.04994090000036522;3.tif;mask.tiff;0.14;left;['left'];0.331760299999587;1;1.123;3.2980852000000596;37
247;S06;A;pre;3;59.695077544482615;[0.01692200000252342, 0.017155499997898005, 0.016340100002707914, 0.016823199999635108];19;3;0.050318800000241026;3.tif;mask.tiff;0.14;left;['left'];0.3577264000014111;1;1.048;3.2407671000000846;53
248;S06;A;pre;3;59.695077544482615;[0.016944700000749435, 0.017083699996874202, 0.016250700002274243, 0.01814159999776166];5;1;0.051475999996910105;7.tif;mask.tiff;0.14;right;['right'];0.3307850999990478;1;1.163;3.3299213999998756;23
249;S06;A;pre;3;59.695077544482615;[0.01637799999662093, 0.016497400003572693, 0.017729099999996834, 0.01571699999840348];49;2;0.04994350000197301;2.tif;mask.tiff;0.14;left;['left'];0.2820535999999265;1;1.075;3.198758500002441;35
250;S06;A;pre;3;59.695077544482615;[0.016630499998427695, 0.01673339999979362, 0.01672570000300766, 0.016764099997089943];60;3;0.05022319999989122;7.tif;mask.tiff;-0.14;right;['right'];0.2690355000013369;1;1.021;3.13544069999989;54
251;S06;A;pre;3;59.695077544482615;[0.017298499999014894, 0.01619120000032126, 0.01696029999948223, 0.016753600000811275];32;5;0.049905100000614766;2.tif;mask.tiff;-0.14;left;['left'];0.29097900000124355;1;1.008;3.1409868000009737;82
252;S06;A;pre;3;59.695077544482615;[0.016523599999345606, 0.016543000001547625, 0.016965199996775482, 0.016458800000691554];70;4;0.04996699999901466;8.tif;mask.tiff;-0.14;right;['right'];0.2950133999984246;1;1.013;3.1451686000000336;72
253;S06;A;pre;3;59.695077544482615;[0.016373599999496946, 0.01638450000245939, 0.017971399996895343, 0.015398900002765004];54;2;0.04975480000211974;8.tif;mask.tiff;-0.14;right;['right'];0.2632179000029282;1;0.936;3.0462871999989147;40
254;S06;A;pre;3;59.695077544482615;[0.015565600002446445, 0.01653729999816278, 0.0171202000019548, 0.016439299997728085];36;5;0.050096799997845665;7.tif;mask.tiff;-0.14;right;['right'];0.4185958000016399;1;1.026;3.2849595000006957;86
255;S06;A;pre;3;59.695077544482615;[0.017483999999967637, 0.016146199999639066, 0.01753159999861964, 0.01596840000274824];21;3;0.049646200001006946;7.tif;mask.tiff;0.14;right;['right'];0.3055386999985785;1;1.033;3.188949800001865;55
256;S06;A;pre;3;59.695077544482615;[0.017130500000348547, 0.016589800001383992, 0.016819699998450233, 0.016299599999911152];41;1;0.049709099999745376;2.tif;mask.tiff;0.14;left;['left'];0.3050014000000374;1;0.932;3.0885254999993776;19
257;S06;A;pre;3;59.695077544482615;[0.016918000001169275, 0.016683000001648907, 0.016656599997077137, 0.016614800002571428];12;2;0.04995440000129747;7.tif;mask.tiff;-0.14;right;['right'];0.7401872000009462;1;1.034;3.623229299999366;38
258;S06;A;pre;3;59.695077544482615;[0.017153400000097463, 0.016554699999687728, 0.016978100000414997, 0.016242699999565957];66;4;0.04977549999966868;3.tif;mask.tiff;-0.14;left;['left'];0.2845424999977695;1;1.023;3.1511561000006623;68
259;S06;A;pre;3;59.695077544482615;[0.01706449999983306, 0.01667549999910989, 0.016514099999767495, 0.01674039999852539];34;5;0.049929999997402774;3.tif;mask.tiff;-0.14;left;['left'];0.46105859999806853;1;1.103;3.4104499999994005;84
260;S06;A;pre;3;59.695077544482615;[0.016787199998361757, 0.01682530000107363, 0.016504800001712283, 0.016945299998042174];58;3;0.050275400000828085;3.tif;mask.tiff;-0.14;left;['left'];0.2890837000013562;1;1.077;3.2056737999992038;52
261;S06;A;pre;3;59.695077544482615;[0.013617299999168608, 0.017119000000093365, 0.016629999998258427, 0.01717560000179219];77;5;0.05092460000014398;7.tif;mask.tiff;0.14;right;['right'];0.2655905999999959;1;1.298;3.3991291999991518;87
262;S06;A;pre;3;59.695077544482615;[0.017309599999862257, 0.016294100001687184, 0.0166626999998698, 0.016744799999287352];25;4;0.04970160000084434;2.tif;mask.tiff;0.14;left;['left'];0.5122347000033187;1;1.447;3.794999599998846;67
263;S06;A;pre;3;59.695077544482615;[0.014285399996879278, 0.016220600002270658, 0.01724109999850043, 0.016866900001332397];71;4;0.050328600002103485;8.tif;mask.tiff;0.14;right;['right'];0.2847452999994857;1;1.371;3.5002105999992636;73
264;S06;A;pre;3;59.695077544482615;[0.01665299999876879, 0.016514100003405474, 0.016454499997053063, 0.01713720000043395];47;1;0.050105800000892486;8.tif;mask.tiff;0.14;right;['right'];0.2184863000002224;1;1.539;3.6023354999997537;25
265;S06;A;pre;3;59.695077544482615;[0.016421700001956197, 0.016882599997188663, 0.016661400000884896, 0.01683699999921373];16;3;0.05038099999728729;2.tif;mask.tiff;-0.14;left;['left'];0.28963590000057593;1;1.243;3.3724656000013056;50
266;S06;A;pre;3;59.695077544482615;[0.017138400002295384, 0.01747099999920465, 0.016093899997940753, 0.016349500001524575];93;2;0.04991439999866998;blank.tiff;mask.tiff;0.14;a;['right'];0.27763339999728487;0;1.017;3.127849900000001;33
267;S06;A;pre;3;59.695077544482615;[0.017098099997383542, 0.01556690000143135, 0.016557899998588255, 0.017142300002888078];46;1;0.04926710000290768;8.tif;mask.tiff;-0.14;right;['right'];0.26022350000130245;1;1.373;3.476099100000283;24
268;S06;A;pre;3;59.695077544482615;[0.01676009999937378, 0.01715920000060578, 0.01670150000063586, 0.016591199997492367];42;1;0.05045189999873401;3.tif;mask.tiff;-0.14;left;['left'];0.2595694999981788;1;0.994;3.092403300001024;20
269;S06;A;pre;3;59.695077544482615;[0.017402299999957904, 0.016103199999633944, 0.016933099999732804, 0.01717070000086096];64;4;0.05020700000022771;2.tif;mask.tiff;-0.14;left;['left'];0.2520555000010063;1;0.962;3.051091200002702;66
270;S06;A;pre;3;59.695077544482615;[0.01648879999993369, 0.01694110000244109, 0.016602199997578282, 0.016945100000157254];91;1;0.050488400000176625;blank.tiff;mask.tiff;0.14;a;['left'];0.2652815000001283;0;0.987;3.099213100002089;17
271;S06;A;pre;3;59.695077544482615;[0.01598530000046594, 0.01684430000022985, 0.0171440000012808, 0.015957899999193614];22;3;0.049946200000704266;8.tif;mask.tiff;-0.14;right;['right'];0.2563665999987279;1;0.989;3.0894604999994044;56
272;S06;A;pre;3;59.695077544482615;[0.01510229999985313, 0.0172947999999451, 0.016171100000065053, 0.017528500000480562];73;5;0.050994400000490714;2.tif;mask.tiff;0.14;left;['left'];0.4066921999983606;1;1.198;3.4399795000026643;83
273;S06;A;pre;3;59.695077544482615;[0.0168733999998949, 0.016462999999930616, 0.01688830000057351, 0.016102199999295408];55;2;0.04945349999979953;8.tif;mask.tiff;0.14;right;['right'];0.3229374000002281;0;0.948;3.105909200003225;41
274;S06;A;pre;3;59.695077544482615;[0.016727399997762404, 0.01692410000032396, 0.016018100002838764, 0.017523099999380065];95;3;0.05046530000254279;blank.tiff;mask.tiff;0.14;a;['right'];0.26706150000245543;0;0.842;2.9498953000002075;49
275;S06;A;pre;3;59.695077544482615;[0.016115099999296945, 0.01692890000049374, 0.016823799996927846, 0.016566600002988707];23;3;0.050319300000410294;8.tif;mask.tiff;0.14;right;['right'];0.2300476999989769;0;1.064;3.129717600000731;57
276;S06;A;pre;3;59.695077544482615;[0.016572000000451226, 0.01656639999782783, 0.016715000001568114, 0.016746599998441525];94;3;0.05002799999783747;blank.tiff;mask.tiff;-0.14;a;['right'];0.3404993999974977;0;1.032;3.2072740999974485;48
277;S06;A;pre;3;59.695077544482615;[0.016773499999544583, 0.017460300001403084, 0.015793700000358513, 0.01681749999988824];92;2;0.05007150000164984;blank.tiff;mask.tiff;-0.14;a;['left'];0.25840769999922486;0;1.314;3.407481199999893;32
278;S06;A;pre;3;59.695077544482615;[0.016399600001022918, 0.01690690000032191, 0.01633600000059232, 0.01706709999780287];13;2;0.0503099999987171;7.tif;mask.tiff;0.14;right;['right'];0.2413339000013366;1;0.99;3.0746837000006053;39
279;S06;A;pre;3;59.695077544482615;[0.01681490000191843, 0.017027599998982623, 0.016755200002080528, 0.01691679999930784];83;2;0.05069960000037099;blank.tiff;mask.tiff;0.14;a;['right'];0.24882300000172108;0;1.368;3.4656185999992886;33
280;S06;A;pre;3;59.695077544482615;[0.01646439999967697, 0.017169800001283875, 0.016596299999946496, 0.016160899998794775];45;1;0.049927000000025146;7.tif;mask.tiff;0.14;right;['right'];0.23401580000063404;1;0.958;3.034080100002029;23
281;S06;A;pre;3;59.695077544482615;[0.005324800000380492, 0.016580099996645004, 0.016971100001683226, 0.016007999998691957];29;4;0.04955919999702019;7.tif;mask.tiff;0.14;right;['right'];0.22935330000109388;1;0.86;2.9456332999980077;71
282;S06;A;pre;3;59.695077544482615;[0.016483100000186823, 0.017413900000974536, 0.01681559999997262, 0.016586100002314197];50;2;0.05081560000326135;3.tif;mask.tiff;-0.14;left;['left'];0.23576780000075814;1;0.854;2.935714300001564;36
283;S06;A;pre;3;59.695077544482615;[0.009721200000058161, 0.016707899998436915, 0.016342499999154825, 0.017404500002157874];72;5;0.050454899999749614;2.tif;mask.tiff;-0.14;left;['left'];0.732029999999213;1;0.937;3.51564110000254;82
284;S06;A;pre;3;59.695077544482615;[0.016676700000971323, 0.016584000000875676, 0.016869200000655837, 0.017124499998317333];35;5;0.050577699999848846;3.tif;mask.tiff;0.14;left;['left'];0.29334319999907166;1;1.081;3.2093167999992147;85
285;S06;A;pre;3;59.695077544482615;[0.017091800000343937, 0.015892700001131743, 0.016679000000294764, 0.01734740000028978];37;5;0.04991910000171629;7.tif;mask.tiff;0.14;right;['right'];0.29074190000028466;1;1.147;3.2738553999988653;87
286;S06;A;pre;3;59.695077544482615;[0.016504399998666486, 0.01698469999973895, 0.016738900001655566, 0.01595399999860092];28;4;0.049677599999995437;7.tif;mask.tiff;-0.14;right;['right'];0.2527388999988034;1;1.108;3.202351300002192;70
287;S06;A;pre;3;59.695077544482615;[0.016582200001721503, 0.017145499998150626, 0.016042499999457505, 0.01674240000284044];56;3;0.04993040000044857;2.tif;mask.tiff;-0.14;left;['left'];0.26797780000197235;1;0.963;3.0685324000005494;50
288;S06;A;pre;3;59.695077544482615;[0.016831999997521052, 0.015851300002395874, 0.016907999997783918, 0.01696330000049784];86;4;0.04972260000067763;blank.tiff;mask.tiff;-0.14;a;['left'];0.7051348999993934;0;0.975;3.522311999997328;64
289;S06;A;pre;3;59.695077544482615;[0.016161399998964043, 0.017044000000169035, 0.016477299999678507, 0.016797700001916382];80;1;0.050319000001763925;blank.tiff;mask.tiff;-0.14;a;['right'];0.2632298000025912;0;1.212;3.312737799999013;16
290;S06;A;pre;3;59.695077544482615;[0.015828900002816226, 0.016686799997842172, 0.017199199999595294, 0.016107400002510985];44;1;0.04999339999994845;7.tif;mask.tiff;-0.14;right;['right'];0.30351429999791435;1;1.326;3.4707741999991413;22
291;S06;A;pre;3;59.695077544482615;[0.016980500000499887, 0.01645009999992908, 0.016579200000705896, 0.01716419999866048];26;4;0.050193499999295454;3.tif;mask.tiff;-0.14;left;['left'];0.2690852999985509;1;1.002;3.1021060999992187;68
292;S06;A;pre;3;59.695077544482615;[0.01599970000097528, 0.017419199997675605, 0.015659800003049895, 0.017356599997583544];4;1;0.050435599998309044;7.tif;mask.tiff;-0.14;right;['right'];0.23513639999873703;1;0.986;3.068562500000553;22
293;S06;A;pre;3;59.695077544482615;[0.016949000000749948, 0.016482000002724817, 0.016618099998595426, 0.01657139999952051];9;2;0.04967150000084075;2.tif;mask.tiff;0.14;left;['left'];0.27091899999868474;1;1.067;3.187264600001072;35
294;S06;A;pre;3;59.695077544482615;[0.01601749999827007, 0.01606280000123661, 0.017871100000775186, 0.015875499997491715];20;3;0.04980939999950351;7.tif;mask.tiff;-0.14;right;['right'];0.28835269999763113;1;0.984;3.121564100001706;54
295;S06;A;pre;3;59.695077544482615;[0.017080100002203835, 0.01691669999854639, 0.015923700000712415, 0.017489199999545235];61;3;0.05032959999880404;7.tif;mask.tiff;0.14;right;['right'];0.8491331999975955;1;1.025;3.7153570000009495;55
296;S06;A;pre;3;59.695077544482615;[0.01717389999976149, 0.015966599999956088, 0.016954700000496814, 0.016769999998359708];69;4;0.04969129999881261;7.tif;mask.tiff;0.14;right;['right'];0.5291517000005115;1;0.928;3.2959490999965055;71
297;S06;A;pre;3;59.695077544482615;[0.016524200000276323, 0.0169848000005004, 0.0165564999988419, 0.01696819999779109];40;1;0.05050949999713339;2.tif;mask.tiff;-0.14;left;['left'];0.2639333000006445;1;0.965;3.063447399999859;18
298;S06;A;pre;3;59.695077544482615;[0.01427700000203913, 0.016909099998883903, 0.016209100002015475, 0.017426200000045355];38;5;0.050544400000944734;8.tif;mask.tiff;-0.14;right;['right'];0.2621008999994956;1;0.952;3.061845899999753;88
299;S06;A;pre;3;59.695077544482615;[0.0168736000014178, 0.016782499998953426, 0.01697760000024573, 0.01615970000057132];81;1;0.049919799999770476;blank.tiff;mask.tiff;0.14;a;['right'];0.6125189000013052;0;1.609;4.0793310000008205;17
300;S06;A;pre;4;59.695077544482615;[0.015241699999023695, 0.016693099998519756, 0.016715699999622302, 0.0166869000022416];99;5;0.05009570000038366;blank.tiff;mask.tiff;0.14;a;['left'];5.3029071999990265;0;0.902;8.052452500000072;81
301;S06;A;pre;4;59.695077544482615;[0.01306779999868013, 0.01630769999974291, 0.016192899998713983, 0.017341100003250176];91;1;0.04984170000170707;blank.tiff;mask.tiff;0.14;a;['right'];0.5801061999991362;0;1.001;3.4297695999994176;17
302;S06;A;pre;4;59.695077544482615;[0.017025099998136284, 0.01666990000012447, 0.016984199999569682, 0.016448900001705624];69;4;0.05010300000139978;7.tif;mask.tiff;0.14;right;['right'];1.1315160999984073;1;1.402;4.38098870000249;71
303;S06;A;pre;4;59.695077544482615;[0.016915500000322936, 0.016644100000121398, 0.016998200000671204, 0.016167699999641627];40;1;0.04981000000043423;2.tif;mask.tiff;-0.14;left;['left'];0.28232130000105826;1;1.075;3.1989568999997573;18
304;S06;A;pre;4;59.695077544482615;[0.017075299998396076, 0.016622999999526655, 0.016385999999329215, 0.01687600000150269];14;2;0.04988500000035856;8.tif;mask.tiff;-0.14;right;['right'];0.24478220000310102;1;0.882;2.961356199997681;40
305;S06;A;pre;4;59.695077544482615;[0.017029200000251876, 0.016166399997018743, 0.01701150000008056, 0.016371300000173505];47;1;0.04954919999727281;8.tif;mask.tiff;0.14;right;['right'];0.2647149000003992;0;0.887;2.998286999998527;25
306;S06;A;pre;4;59.695077544482615;[0.015851700001803692, 0.016274199999315897, 0.016777100001490908, 0.016340300000592833];22;3;0.04939160000139964;8.tif;mask.tiff;-0.14;right;['right'];0.22968509999918751;1;1.038;3.11306759999934;56
307;S06;A;pre;4;59.695077544482615;[0.01591520000147284, 0.016253499998128973, 0.016734600001655053, 0.017076000000088243];95;3;0.05006409999987227;blank.tiff;mask.tiff;0.14;a;['left'];0.5397956000015256;0;1.023;3.4064343999998528;49
308;S06;A;pre;4;59.695077544482615;[0.014325500000268221, 0.017298200000368524, 0.01587410000138334, 0.017036400000506546];4;1;0.05020870000225841;7.tif;mask.tiff;-0.14;right;['right'];0.9938095999968937;1;1.122;3.959614200000942;22
309;S06;A;pre;4;59.695077544482615;[0.014012499999807915, 0.01759899999888148, 0.01657840000189026, 0.01653219999934663];97;4;0.05070960000011837;blank.tiff;mask.tiff;0.14;a;['left'];0.39202929999737535;0;1.063;3.292138500000874;65
310;S06;A;pre;4;59.695077544482615;[0.01658769999994547, 0.016848499999468913, 0.016610700000455836, 0.016305400000419468];98;5;0.04976460000034422;blank.tiff;mask.tiff;-0.14;a;['right'];0.2328882000001613;0;1.4;3.4661059999998542;80
311;S06;A;pre;4;59.695077544482615;[0.01511210000171559, 0.01636549999966519, 0.017491099999460857, 0.016405900001700502];82;2;0.05026250000082655;blank.tiff;mask.tiff;-0.14;a;['left'];0.6083944000019983;0;2.6;5.041250400001445;32
312;S06;A;pre;4;59.695077544482615;[0.016847999999299645, 0.016826800001581432, 0.01716390000001411, 0.016199400000914466];89;5;0.05019010000251001;blank.tiff;mask.tiff;0.14;a;['right'];0.48420339999938733;0;1.111;3.4339607000001706;81
313;S06;A;pre;4;59.695077544482615;[0.01646710000204621, 0.016844099998706952, 0.017316999998001847, 0.015878300000622403];75;5;0.0500393999973312;3.tif;mask.tiff;0.14;left;['left'];0.34587420000025304;1;0.997;3.179322299998603;85
314;S06;A;pre;4;59.695077544482615;[0.01650099999824306, 0.016899300000659423, 0.016758900001150323, 0.016250900000159163];78;5;0.04990910000196891;8.tif;mask.tiff;-0.14;right;['right'];0.240092399999412;1;1.123;3.2055711000029987;88
315;S06;A;pre;4;59.695077544482615;[0.01680800000031013, 0.016539199998078402, 0.01632930000050692, 0.01608010000200011];7;1;0.04894860000058543;8.tif;mask.tiff;0.14;right;['right'];0.23625660000107018;1;0.857;2.935030000000552;25
316;S06;A;pre;4;59.695077544482615;[0.016151899999385932, 0.01729939999859198, 0.016805200000817422, 0.016620700000203215];5;1;0.050725299999612616;7.tif;mask.tiff;0.14;right;['right'];0.40228990000105114;1;0.841;3.0848762999994506;23
317;S06;A;pre;4;59.695077544482615;[0.016041900002164766, 0.016657299998769304, 0.017493700001068646, 0.016990599997370737];26;4;0.05114159999720869;3.tif;mask.tiff;-0.14;left;['left'];0.2644509999990987;1;1.031;3.131638099999691;68
318;S06;A;pre;4;59.695077544482615;[0.017783899998903507, 0.01591050000206451, 0.0165393999996013, 0.017036900000675814];88;5;0.049486800002341624;blank.tiff;mask.tiff;-0.14;a;['left'];0.3538736999980756;0;0.923;3.1170553999982076;80
319;S06;A;pre;4;59.695077544482615;[0.01626159999796073, 0.017806799998652423, 0.01582560000315425, 0.016725299999961862];76;5;0.050357700001768535;7.tif;mask.tiff;-0.14;right;['right'];0.24312260000078822;1;1.011;3.09325280000121;86
320;S06;A;pre;4;59.695077544482615;[0.01600500000131433, 0.01681539999844972, 0.016707800001313444, 0.016434400000434835];41;1;0.049957600000198;2.tif;mask.tiff;0.14;left;['left'];0.3013715000015509;0;0.955;3.1013725999982853;19
321;S06;A;pre;4;59.695077544482615;[0.01664140000139014, 0.017711599997710437, 0.01591520000147284, 0.017096499999752268];61;3;0.050723299998935545;7.tif;mask.tiff;0.14;right;['right'];0.25060579999990296;0;1.762;3.850687800000742;55
322;S06;A;pre;4;59.695077544482615;[0.017490800000814488, 0.016291799998725764, 0.016390400000091176, 0.017112300000007963];42;1;0.049794499998824904;3.tif;mask.tiff;-0.14;left;['right'];0.26600479999979143;1;0.958;3.0654288999976416;20
323;S06;A;pre;4;59.695077544482615;[0.016219100001762854, 0.016877899997780332, 0.016819100001157494, 0.0163923000000068];30;4;0.050089299998944625;8.tif;mask.tiff;-0.14;right;['right'];0.24958999999944353;1;0.954;3.0489396000011766;72
324;S06;A;pre;4;59.695077544482615;[0.016066000000137137, 0.016303000000334578, 0.017372400001477217, 0.016269100000499748];70;4;0.04994450000231154;8.tif;mask.tiff;-0.14;right;['right'];0.24732500000027358;1;0.843;2.9303294999990612;72
325;S06;A;pre;4;59.695077544482615;[0.016554999998334097, 0.01681760000064969, 0.01659980000113137, 0.01650569999765139];13;2;0.04992309999943245;7.tif;mask.tiff;0.14;right;['right'];0.32157079999888083;1;0.9;3.0712094999980764;39
326;S06;A;pre;4;59.695077544482615;[0.016711899999791058, 0.016828899999381974, 0.016895799999474548, 0.016371100002288586];86;4;0.05009580000114511;blank.tiff;mask.tiff;-0.14;a;['left'];5.541198500002793;0;1.212;8.590540100001817;64
327;S06;A;pre;4;59.695077544482615;[0.016794399998616427, 0.01600750000216067, 0.017519900000479538, 0.016209499997785315];36;5;0.04973690000042552;7.tif;mask.tiff;-0.14;right;['right'];0.7361767000002146;1;1.359;3.9358264000002237;86
328;S06;A;pre;4;59.695077544482615;[0.016499999997904524, 0.016390299999329727, 0.016555000001972076, 0.016427899998234352];19;3;0.049373199999536155;3.tif;mask.tiff;0.14;left;['left'];0.40627870000025723;1;1.772;4.022761399999581;53
329;S06;A;pre;4;59.695077544482615;[0.0160409999989497, 0.017508699998870725, 0.01583039999968605, 0.017262400000618072];11;2;0.05060149999917485;3.tif;mask.tiff;0.14;left;['left'];0.32599910000135424;1;1.598;3.759957000002032;37
330;S06;A;pre;4;59.695077544482615;[0.01592490000257385, 0.015790099998412188, 0.017465100001572864, 0.01674039999852539];3;1;0.04999559999851044;3.tif;mask.tiff;0.14;left;['left'];0.5316483000024164;1;1.552;3.9319342999988294;21
331;S06;A;pre;4;59.695077544482615;[0.016708200000721263, 0.016995999998471234, 0.0163100999998278, 0.016519299999345094];96;4;0.049825399997644126;blank.tiff;mask.tiff;-0.14;a;['left'];0.43231329999980517;0;1.165;3.4314931000008073;64
332;S06;A;pre;4;59.695077544482615;[0.017016800000419607, 0.016010899998946115, 0.01651810000112164, 0.017133199999079807];90;1;0.04966219999914756;blank.tiff;mask.tiff;-0.14;a;['left'];0.3006750999993528;0;1.059;3.2009620999997423;16
333;S06;A;pre;4;59.695077544482615;[0.017256000002817018, 0.015921199999866076, 0.016219199998886324, 0.017119199997978285];52;2;0.049259599996730685;7.tif;mask.tiff;-0.14;right;['right'];0.26714499999798136;1;0.975;3.083408899998176;38
334;S06;A;pre;4;59.695077544482615;[0.016547999999602325, 0.016912899998715147, 0.01646199999959208, 0.017365600000630366];21;3;0.050740499998937594;7.tif;mask.tiff;0.14;right;['right'];0.9829327999977977;1;0.997;3.8166829999972833;55
335;S06;A;pre;4;59.695077544482615;[0.01754369999980554, 0.016211499998462386, 0.01720440000281087, 0.016332799998053815];94;3;0.04974869999932707;blank.tiff;mask.tiff;-0.14;a;['left'];0.4259042000012414;0;0.981;3.2426863000000594;48
336;S06;A;pre;4;59.695077544482615;[0.016700000000128057, 0.017213700000866083, 0.016422500000771834, 0.017215799998666625];59;3;0.05085200000030454;3.tif;mask.tiff;0.14;left;['left'];0.2662433000004967;0;0.978;3.0832711000002746;53
337;S06;A;pre;4;59.695077544482615;[0.016676799998094793, 0.01629999999931897, 0.01700850000270293, 0.016823399997520028];12;2;0.05013189999954193;7.tif;mask.tiff;-0.14;right;['right'];0.33436539999820525;1;1.28;3.4515200999994704;38
338;S06;A;pre;4;59.695077544482615;[0.01696799999990617, 0.01662909999868134, 0.017233200000191573, 0.016410500000347383];48;2;0.0502727999992203;2.tif;mask.tiff;-0.14;left;['left'];0.2717371999970055;1;1.008;3.121654300000955;34
339;S06;A;pre;4;59.695077544482615;[0.016551000000617933, 0.016973000001598848, 0.016443799999251496, 0.016685700000380166];58;3;0.05010250000123051;3.tif;mask.tiff;-0.14;left;['left'];0.32911629999944125;1;0.932;3.0959370999989915;52
340;S06;A;pre;4;59.695077544482615;[0.017240599998331163, 0.017199500001879642, 0.016015899997000815, 0.01676230000157375];10;2;0.049977700000454206;3.tif;mask.tiff;-0.14;left;['left'];0.2483098999982758;1;0.92;3.014645699997345;36
341;S06;A;pre;4;59.695077544482615;[0.01646669999900041, 0.01722890000019106, 0.016444099997897865, 0.016378300002543256];74;5;0.05005130000063218;3.tif;mask.tiff;-0.14;left;['left'];0.23571539999829838;1;0.858;2.935272499998973;84
342;S06;A;pre;4;59.695077544482615;[0.011558300000615418, 0.017008099999657134, 0.01640869999755523, 0.016319800000928808];85;3;0.04973659999814117;blank.tiff;mask.tiff;0.14;a;['right'];0.40483170000152313;0;1.166;3.421351400000276;49
343;S06;A;pre;4;59.695077544482615;[0.017554199999722186, 0.016383300000597956, 0.015911999998934334, 0.016915500000322936];68;4;0.049210799999855226;7.tif;mask.tiff;-0.14;right;['right'];0.7594372999992629;1;0.941;3.5433889999985695;70
344;S06;A;pre;4;59.695077544482615;[0.01663180000105058, 0.016453599997475976, 0.016969500000413973, 0.016669000000547385];24;4;0.050092099998437334;2.tif;mask.tiff;-0.14;left;['left'];0.44309849999990547;1;0.928;3.2098217999991903;66
345;S06;A;pre;4;59.695077544482615;[0.01633109999966109, 0.01645279999866034, 0.0164061000032234, 0.017264099999010796];80;1;0.050123000000894535;blank.tiff;mask.tiff;-0.14;a;['right'];0.27110089999769116;0;1.061;3.1711472000024514;16
346;S06;A;pre;4;59.695077544482615;[0.01640869999755523, 0.016763100000389386, 0.016457600002468098, 0.016756400000303984];35;5;0.04997710000316147;3.tif;mask.tiff;0.14;left;['right'];0.40944129999843426;0;1.109;3.358792999999423;85
347;S06;A;pre;4;59.695077544482615;[0.01620550000006915, 0.016936899999564048, 0.016939799999818206, 0.016455700002552476];17;3;0.05033240000193473;2.tif;mask.tiff;0.14;left;['left'];0.28397920000134036;0;0.921;3.0505851000016264;51
348;S06;A;pre;4;59.695077544482615;[0.017014799999742536, 0.016173799998796312, 0.01654430000053253, 0.01660959999935585];39;5;0.04932769999868469;8.tif;mask.tiff;0.14;right;['right'];0.2443703999997524;0;0.914;2.9940319000015734;89
349;S06;A;pre;4;59.695077544482615;[0.0164210999973875, 0.016726800000469666, 0.017261000000871718, 0.0174762999995437];27;4;0.05146410000088508;3.tif;mask.tiff;0.14;left;['right'];0.2498498999993899;0;1.042;3.13319330000013;69
350;S06;A;pre;4;59.695077544482615;[0.016761200000473764, 0.017007499998726416, 0.01624450000235811, 0.01764279999770224];45;1;0.050894799998786766;7.tif;mask.tiff;0.14;right;['right'];0.6368086000002222;1;1.116;3.5865319000004092;23
351;S06;A;pre;4;59.695077544482615;[0.01675279999835766, 0.01614990000234684, 0.017200800000864547, 0.01720789999671979];62;3;0.050558599999931175;8.tif;mask.tiff;-0.14;right;['right'];0.3422026999978698;1;0.937;3.125119899999845;56
352;S06;A;pre;4;59.695077544482615;[0.01750259999971604, 0.017382999998517334, 0.015246499999193475, 0.017520000001240987];92;2;0.050149499998951796;blank.tiff;mask.tiff;-0.14;a;['left'];1.96732350000093;0;1.628;5.43442209999921;32
353;S06;A;pre;4;59.695077544482615;[0.016105999999126652, 0.01684900000327616, 0.01676939999742899, 0.01658780000070692];44;1;0.05020620000141207;7.tif;mask.tiff;-0.14;right;['right'];0.30667600000015227;1;1.575;3.722570000001724;22
354;S06;A;pre;4;59.695077544482615;[0.01685900000302354, 0.01700139999957173, 0.01616690000082599, 0.016221299996686867];23;3;0.04938959999708459;8.tif;mask.tiff;0.14;right;['right'];0.2875978000010946;1;0.967;3.1050662999987253;57
355;S06;A;pre;4;59.695077544482615;[0.01605040000140434, 0.016603299998678267, 0.017081900001358008, 0.016501499998412328];72;5;0.0501866999984486;2.tif;mask.tiff;-0.14;left;['left'];1.8414512999988801;1;1.073;4.757837699999072;82
356;S06;A;pre;4;59.695077544482615;[0.01597849999961909, 0.016889399998035515, 0.017119400003139162, 0.016011399999115383];79;5;0.05002020000029006;8.tif;mask.tiff;0.14;right;['left'];0.4431156999999075;0;1.156;3.443346799998835;89
357;S06;A;pre;4;59.695077544482615;[0.016751099999964936, 0.017165200002636993, 0.015817599996807985, 0.017143900000519352];38;5;0.05012669999996433;8.tif;mask.tiff;-0.14;right;['right'];0.26574089999849093;0;1.614;3.7148544999981823;88
358;S06;A;pre;4;59.695077544482615;[0.01673330000267015, 0.016539099997316953, 0.016840300002513686, 0.01701159999720403];53;2;0.05039099999703467;7.tif;mask.tiff;0.14;right;['right'];0.48584069999924395;1;0.837;3.168594300001132;39
359;S06;A;pre;4;59.695077544482615;[0.016385999999329215, 0.017324600001302315, 0.016095599999971455, 0.016494499999680556];43;1;0.049914700000954326;3.tif;mask.tiff;0.14;left;['left'];0.33720679999896674;0;1.031;3.203854899998987;21
360;S06;A;pre;4;59.695077544482615;[0.01685910000014701, 0.016504299997905036, 0.016811200002848636, 0.01652509999985341];0;1;0.04984060000060708;2.tif;mask.tiff;-0.14;left;['left'];0.2726939999993192;1;0.914;3.0221719999972265;18
361;S06;A;pre;4;59.695077544482615;[0.01710559999992256, 0.016125300000567222, 0.017044000000169035, 0.016698399998858804];31;4;0.04986769999959506;8.tif;mask.tiff;0.14;right;['right'];0.24868549999882816;1;0.936;3.032220500001131;73
362;S06;A;pre;4;59.695077544482615;[0.016554800000449177, 0.017056400000001304, 0.015929000001051463, 0.016926100001001032];1;1;0.0499115000020538;2.tif;mask.tiff;0.14;left;['left'];0.276182699999481;1;0.882;2.9923562000003585;19
363;S06;A;pre;4;59.695077544482615;[0.017566399998031557, 0.01613799999904586, 0.01661969999986468, 0.01723860000129207];83;2;0.04999630000020261;blank.tiff;mask.tiff;0.14;a;['left'];0.28332139999838546;0;0.929;3.051687299997866;33
364;S06;A;pre;4;59.695077544482615;[0.016429700001026504, 0.016913399998884415, 0.017113900001277216, 0.016370900000765687];32;5;0.05039820000092732;2.tif;mask.tiff;-0.14;left;['left'];0.2509776000006241;1;1.147;3.23432959999991;82
365;S06;A;pre;4;59.695077544482615;[0.017268899999180576, 0.016838300001836615, 0.015948100000969134, 0.01773279999906663];93;2;0.05051920000187238;blank.tiff;mask.tiff;0.14;a;['right'];0.3075654000022041;0;0.97;3.1077683000003162;33
366;S06;A;pre;4;59.695077544482615;[0.015934299997752532, 0.016971800003375392, 0.01624249999804306, 0.01677420000123675];49;2;0.0499885000026552;2.tif;mask.tiff;0.14;left;['left'];0.6507104000011168;1;1.147;3.629758799997944;35
367;S06;A;pre;4;59.695077544482615;[0.014709699997183634, 0.016212000002269633, 0.016703199999028584, 0.01727290000053472];16;3;0.050188100001832936;2.tif;mask.tiff;-0.14;left;['left'];0.3563212000008207;1;1.323;3.522594599999138;50
368;S06;A;pre;4;59.695077544482615;[0.01630749999822001, 0.017036200002621626, 0.01578739999968093, 0.016284099998301826];84;3;0.04910770000060438;blank.tiff;mask.tiff;-0.14;a;['left'];0.34381789999679313;0;0.937;3.1270177000005788;48
369;S06;A;pre;4;59.695077544482615;[0.016282600001432, 0.016785200001322664, 0.016997799997625407, 0.016350300000340212];28;4;0.05013329999928828;7.tif;mask.tiff;-0.14;right;['right'];0.25196839999989606;1;0.992;3.084958999999799;70
370;S06;A;pre;4;59.695077544482615;[0.017026699999405537, 0.0164574000009452, 0.016457600002468098, 0.016680999997333856];77;5;0.049596000000747154;7.tif;mask.tiff;0.14;right;['right'];0.26064120000228286;1;0.922;3.025996500000474;87
371;S06;A;pre;4;59.695077544482615;[0.015802800000528805, 0.01648370000111754, 0.016741899999033194, 0.01666990000012447];73;5;0.049895500000275206;2.tif;mask.tiff;0.14;left;['right'];0.289112300000852;1;1.04;3.1722238999973342;83
372;S06;A;pre;4;59.695077544482615;[0.01659510000172304, 0.017230599998583784, 0.018139799998607486, 0.01540709999972023];37;5;0.0507774999969115;7.tif;mask.tiff;0.14;right;['right'];0.25240629999825615;1;0.889;2.985711400000582;87
373;S06;A;pre;4;59.695077544482615;[0.016298800001095515, 0.01702819999991334, 0.017157700000097975, 0.015371699999377597];51;2;0.04955759999938891;3.tif;mask.tiff;0.14;left;['left'];0.2675029000020004;1;0.924;3.0341463000004296;37
374;S06;A;pre;4;59.695077544482615;[0.01636050000161049, 0.01712760000009439, 0.016322499999660067, 0.016893799998797476];60;3;0.05034389999855193;7.tif;mask.tiff;-0.14;right;['right'];0.2625460000017483;1;0.9;2.995598499997868;54
375;S06;A;pre;4;59.695077544482615;[0.016310300001350697, 0.01648890000069514, 0.016913199997361517, 0.016705600002751453];25;4;0.05010770000080811;2.tif;mask.tiff;0.14;left;['left'];0.25401899999997113;1;1.008;3.1029748000000836;67
376;S06;A;pre;4;59.695077544482615;[0.016129099996760488, 0.016918400000577094, 0.01701630000025034, 0.016391400000429712];18;3;0.050326100001257146;3.tif;mask.tiff;-0.14;left;['left'];0.2611609000014141;1;1.126;3.2270143999994616;52
377;S06;A;pre;4;59.695077544482615;[0.01681079999980284, 0.01734770000257413, 0.015435099998285295, 0.017729200000758283];71;4;0.05051200000161771;8.tif;mask.tiff;0.14;right;['right'];0.7236575000024459;1;1.223;3.790346400000999;73
378;S06;A;pre;4;59.695077544482615;[0.016207500000746222, 0.015960700002324302, 0.01735019999978249, 0.01597570000012638];2;1;0.04928660000223317;3.tif;mask.tiff;-0.14;left;['left'];0.40799039999910747;1;1.167;3.4080238999995345;20
379;S06;A;pre;4;59.695077544482615;[0.016451300001790514, 0.017170099999930244, 0.016707700000551995, 0.01644769999984419];34;5;0.05032550000032643;3.tif;mask.tiff;-0.14;left;['left'];0.7469672999977774;1;0.956;3.5463004000012006;84
380;S06;A;pre;4;59.695077544482615;[0.016364700000849552, 0.01607779999903869, 0.017671100002189633, 0.016154000000824453];63;3;0.049902900002052775;8.tif;mask.tiff;0.14;right;['right'];0.27021509999758564;1;1.012;3.119666499998857;57
381;S06;A;pre;4;59.695077544482615;[0.01685899999938556, 0.016432100001111394, 0.016538200001377845, 0.01692170000023907];55;2;0.04989200000272831;8.tif;mask.tiff;0.14;right;['right'];0.28215949999867007;1;1.006;3.1318654999995488;41
382;S06;A;pre;4;59.695077544482615;[0.015783400001964765, 0.01733529999910388, 0.01585250000061933, 0.016805100000055972];67;4;0.04999289999977918;3.tif;mask.tiff;0.14;left;['left'];0.3228268000020762;1;1.506;3.6727801999986696;69
383;S06;A;pre;4;59.695077544482615;[0.016538100000616396, 0.01700409999830299, 0.01607990000047721, 0.016670900000463007];56;3;0.04975489999924321;2.tif;mask.tiff;-0.14;left;['left'];0.30997970000316855;1;1.225;3.3594616999980644;50
384;S06;A;pre;4;59.695077544482615;[0.016727799997170223, 0.01661009999952512, 0.016751800001657102, 0.01652029999968363];66;4;0.04988220000086585;3.tif;mask.tiff;-0.14;left;['left'];0.29318400000192923;1;1.339;3.4764055000014196;68
385;S06;A;pre;4;59.695077544482615;[0.016574900000705384, 0.016449599999759812, 0.01748349999979837, 0.016130099997099023];64;4;0.050063199996657204;2.tif;mask.tiff;-0.14;left;['left'];0.2917732999994769;1;1.153;3.2916427999989537;66
386;S06;A;pre;4;59.695077544482615;[0.017273900000873255, 0.016488499997649342, 0.016674599999532802, 0.016734400000132155];50;2;0.0498974999973143;3.tif;mask.tiff;-0.14;left;['left'];0.3232925000011164;1;0.943;3.1057099999998172;36
387;S06;A;pre;4;59.695077544482615;[0.016825400001835078, 0.016782199996669078, 0.016250399999989895, 0.01736690000325325];54;2;0.05039949999991222;8.tif;mask.tiff;-0.14;right;['right'];0.3295050999986415;1;0.94;3.112597099996492;40
388;S06;A;pre;4;59.695077544482615;[0.016715400000975933, 0.01674230000207899, 0.01686619999964023, 0.01682969999819761];46;1;0.05043819999991683;8.tif;mask.tiff;-0.14;right;['right'];0.2622123000001011;1;0.963;3.062054000001808;24
389;S06;A;pre;4;59.695077544482615;[0.016524300001037773, 0.017336699998850236, 0.015382000001409324, 0.01661959999910323];9;2;0.04933829999936279;2.tif;mask.tiff;0.14;left;['left'];0.2907186000011279;1;1.073;3.2066743000032147;35
390;S06;A;pre;4;59.695077544482615;[0.016948899999988498, 0.016155799999978626, 0.016819399999803863, 0.016310599999997066];6;1;0.049285799999779556;8.tif;mask.tiff;-0.14;right;['right'];0.2777559999994992;1;1.026;3.143955100000312;24
391;S06;A;pre;4;59.695077544482615;[0.014267399998061592, 0.016724400000384776, 0.016109899999719346, 0.018020800001977477];15;2;0.0508551000020816;8.tif;mask.tiff;0.14;right;['right'];0.25726750000103493;1;1.048;3.1407639999997627;41
392;S06;A;pre;4;59.695077544482615;[0.010578100002021529, 0.01708130000042729, 0.01796249999824795, 0.01575779999984661];8;2;0.05080159999852185;2.tif;mask.tiff;-0.14;left;['left'];0.2747870999992301;1;1.113;3.2255707000003895;34
393;S06;A;pre;4;59.695077544482615;[0.016779500001575798, 0.017182499999762513, 0.0163219999994908, 0.016298099999403348];87;4;0.04980259999865666;blank.tiff;mask.tiff;0.14;a;['left'];0.9871616000018548;0;0.979;3.804104400001961;65
394;S06;A;pre;4;59.695077544482615;[0.016378899999835994, 0.016777400000137277, 0.016673800000717165, 0.016994099998555612];81;1;0.050445299999410054;blank.tiff;mask.tiff;0.14;a;['left'];1.002386899999692;0;4.252;7.102205200000753;17
395;S06;A;pre;4;59.695077544482615;[0.016785100000561215, 0.01659270000163815, 0.01655159999791067, 0.016920800000661984];29;4;0.050065100000210805;7.tif;mask.tiff;0.14;right;['right'];0.2816186000018206;1;1.016;3.1483480999995663;71
396;S06;A;pre;4;59.695077544482615;[0.016432499996881234, 0.01704710000194609, 0.016586999998253305, 0.0167743000019982];20;3;0.050408400002197595;7.tif;mask.tiff;-0.14;right;['right'];0.5495910999998159;1;1.041;3.4327188999995997;54
397;S06;A;pre;4;59.695077544482615;[0.01751929999954882, 0.01632389999940642, 0.016339900001185015, 0.017742500000167638];57;3;0.050406300000759074;2.tif;mask.tiff;0.14;left;['left'];0.3293706000004022;1;0.917;3.0959019000001717;51
398;S06;A;pre;4;59.695077544482615;[0.014818000003288034, 0.01713749999908032, 0.015940999997837935, 0.016472499999508727];33;5;0.04955099999642698;2.tif;mask.tiff;0.14;left;['left'];0.7105821000004653;1;0.969;3.526562600000034;83
399;S06;A;pre;4;59.695077544482615;[0.0167963999992935, 0.016780199999629986, 0.016332399998645997, 0.016761300001235213];65;4;0.049873899999511195;2.tif;mask.tiff;0.14;left;['left'];0.30294019999928423;1;1.099;3.235307800001465;67
