;subject;stim;session;block;frame_rate;frame_int;trial_nb;SOA;real_SOA;target;mask;position;cor_ans;obj_rating;obj_RT;subj_rating;subj_RT;trial_duration;trigger
0;S09;A;pre;1;59.9724246790481;[0.016701099999409053, 0.0168550000007599, 0.016982999999527237, 0.016295500000524044];67;4;0.05013350000081118;3.tif;mask.tiff;0.14;left;['right'];0.9613540000000285;1;1.895;4.724546399999781;69
1;S09;A;pre;1;59.9724246790481;[0.01741390000006504, 0.01581389999955718, 0.017222700000274926, 0.01655159999972966];94;3;0.049588199999561766;blank.tiff;mask.tiff;-0.14;a;['right'];1.2356014000006326;0;1.112;4.185392200000024;48
2;S09;A;pre;1;59.9724246790481;[0.017309799999566167, 0.01615769999989425, 0.016663600000356382, 0.016431699999884586];64;4;0.049253000000135216;2.tif;mask.tiff;-0.14;left;['left'];1.323040100000071;1;0.972;4.139191500000379;66
3;S09;A;pre;1;59.9724246790481;[0.016768299999966985, 0.017336099999738508, 0.015764499999932013, 0.016884800000298128];7;1;0.04998539999996865;8.tif;mask.tiff;0.14;right;['right'];0.6740325000000666;1;0.947;3.4567011999997703;25
4;S09;A;pre;1;59.9724246790481;[0.01769590000003518, 0.015560300000288407, 0.016885399999409856, 0.016561100000217266];11;2;0.04900679999991553;3.tif;mask.tiff;0.14;left;['right'];0.41773620000003575;1;1.144;3.4010504999996556;37
5;S09;A;pre;1;59.9724246790481;[0.016239499999755935, 0.016841399999975692, 0.016905299999962153, 0.01641749999998865];66;4;0.050164199999926495;3.tif;mask.tiff;-0.14;left;['right'];0.39345960000082414;1;0.787;3.027082199999313;68
6;S09;A;pre;1;59.9724246790481;[0.009154899999884947, 0.017059700000572775, 0.01659419999941747, 0.016825300000164134];85;3;0.05047920000015438;blank.tiff;mask.tiff;0.14;a;['left'];1.0572060000004058;0;0.992;3.923723599999903;49
7;S09;A;pre;1;59.9724246790481;[0.014705800000228919, 0.016296899999360903, 0.016664900000250782, 0.016763499999797205];39;5;0.04972529999940889;8.tif;mask.tiff;0.14;right;['right'];0.46556799999962095;1;0.857;3.2158104999998613;89
8;S09;A;pre;1;59.9724246790481;[0.007075100000292878, 0.016364600000088103, 0.017097899999498622, 0.01702130000012403];49;2;0.050483799999710754;2.tif;mask.tiff;0.14;left;['left'];0.6010741000000053;1;0.918;3.401086600000781;35
9;S09;A;pre;1;59.9724246790481;[0.006634999999732827, 0.01699559999997291, 0.016668700000082026, 0.016276299999844923];5;1;0.04994059999989986;7.tif;mask.tiff;0.14;right;['right'];0.3993270000000848;1;0.809;3.0824216999999408;23
10;S09;A;pre;1;59.9724246790481;[0.019011999999747786, 0.016051700000389246, 0.017605799999728333, 0.01644280000073195];13;2;0.05010030000084953;7.tif;mask.tiff;0.14;right;['right'];0.38936290000037843;1;0.76;3.0556864000000132;39
11;S09;A;pre;1;59.9724246790481;[0.01732979999997042, 0.01693429999977525, 0.016549900000427442, 0.016708899999684945];4;1;0.050193099999887636;7.tif;mask.tiff;-0.14;right;['right'];0.39738609999949404;1;1.129;3.4145250000001397;22
12;S09;A;pre;1;59.9724246790481;[0.009671499999967637, 0.01662170000054175, 0.016997300000184623, 0.016939999999522115];80;1;0.05055900000024849;blank.tiff;mask.tiff;-0.14;a;['right'];0.3724070999996911;0;0.767;3.022169400000166;16
13;S09;A;pre;1;59.9724246790481;[0.016896999999516993, 0.01728079999975307, 0.016792500000519794, 0.016221199999563396];34;5;0.05029449999983626;3.tif;mask.tiff;-0.14;left;['left'];0.48981929999990825;1;0.832;3.2230236999994304;84
14;S09;A;pre;1;59.9724246790481;[0.0069244999995135, 0.016181900000447058, 0.016829499999403197, 0.017138400000476395];69;4;0.05014980000032665;7.tif;mask.tiff;0.14;right;['right'];0.34776349999992817;1;0.829;3.0476008000005095;71
15;S09;A;pre;1;59.9724246790481;[0.011134600000332284, 0.0166215999997803, 0.01691599999958271, 0.016747000000577827];3;1;0.05028459999994084;3.tif;mask.tiff;0.14;left;['right'];0.2553957999998602;1;0.732;2.855543700000453;21
16;S09;A;pre;1;59.9724246790481;[0.01744849999977305, 0.016866700000718993, 0.01679829999920912, 0.016521900000043388];87;4;0.0501868999999715;blank.tiff;mask.tiff;0.14;a;['left'];0.8722509999997783;0;1.015;3.78905130000021;65
17;S09;A;pre;1;59.9724246790481;[0.006152099999781058, 0.01699700000062876, 0.016834099999869068, 0.016272299999400275];25;4;0.0501033999998981;2.tif;mask.tiff;0.14;left;['right'];0.3481258000001617;1;0.826;3.0480727000003753;67
18;S09;A;pre;1;59.9724246790481;[0.006087900000238733, 0.016866799999661453, 0.016501299999617913, 0.01631859999997687];52;2;0.049686699999256234;7.tif;mask.tiff;-0.14;right;['right'];1.8749238000000332;1;0.802;4.558977900000173;38
19;S09;A;pre;1;59.9724246790481;[0.018398100000013073, 0.016850399999384535, 0.017039600000316568, 0.016604999999799475];47;1;0.05049499999950058;8.tif;mask.tiff;0.14;right;['right'];0.39246600000024046;1;0.756;3.0422223000005033;25
20;S09;A;pre;1;59.9724246790481;[0.017476500000157102, 0.016841999999996915, 0.01666990000012447, 0.01725429999987682];97;4;0.05076619999999821;blank.tiff;mask.tiff;0.14;a;['right'];0.6429794999994556;1;1.066;3.6101591999995435;65
21;S09;A;pre;1;59.9724246790481;[0.010669899999811605, 0.016962400000011257, 0.016206100000090373, 0.016778400000475813];22;3;0.04994690000057744;8.tif;mask.tiff;-0.14;right;['right'];0.45888669999931153;1;1.319;3.6584956999995484;56
22;S09;A;pre;1;59.9724246790481;[0.005225600000812847, 0.01728739999998652, 0.017431299999771, 0.01569850000032602];78;5;0.05041720000008354;8.tif;mask.tiff;-0.14;right;['right'];0.45664940000006027;1;0.772;3.1067396000007648;88
23;S09;A;pre;1;59.9724246790481;[0.012721500000225205, 0.016675699999723292, 0.01661379999950441, 0.017243100000086997];24;4;0.0505325999993147;2.tif;mask.tiff;-0.14;left;['right'];0.29108520000045246;1;0.983;3.1575284000000465;66
24;S09;A;pre;1;59.9724246790481;[0.009706499999992957, 0.015982099999746424, 0.01698190000024624, 0.01644490000035148];73;5;0.04940890000034415;2.tif;mask.tiff;0.14;left;['left'];0.3790126000003511;1;0.928;3.178545199999462;83
25;S09;A;pre;1;59.9724246790481;[0.004218600000058359, 0.016582000000198605, 0.016855199999554316, 0.016828499999974156];62;3;0.050265699999727076;8.tif;mask.tiff;-0.14;right;['right'];0.47294349999992846;1;0.991;3.356283600000097;56
26;S09;A;pre;1;59.9724246790481;[0.012264599999980419, 0.017291999999542895, 0.01632690000042203, 0.01695670000026439];70;4;0.050575600000229315;8.tif;mask.tiff;-0.14;right;['right'];0.5496032999999443;1;0.999;3.432486300000164;72
27;S09;A;pre;1;59.9724246790481;[0.01627490000009857, 0.016638399999465037, 0.016539600000214705, 0.016808899999887217];56;3;0.04998689999956696;2.tif;mask.tiff;-0.14;left;['left'];0.9165280000006533;1;1.561;4.382732799999758;50
28;S09;A;pre;1;59.9724246790481;[0.008078100000602717, 0.01713149999977759, 0.0162663999999495, 0.017159999999421416];50;2;0.0505578999991485;3.tif;mask.tiff;-0.14;left;['right'];0.25468739999996615;1;0.809;2.937638700000207;36
29;S09;A;pre;1;59.9724246790481;[0.01458360000015091, 0.016943199999332137, 0.016789600000265636, 0.016847199999574514];14;2;0.05057999999917229;8.tif;mask.tiff;-0.14;right;['right'];0.4508082000002105;1;0.755;3.117503200000101;40
30;S09;A;pre;1;59.9724246790481;[0.01579649999985122, 0.016584299999522045, 0.016622600000118837, 0.016538300000320305];16;3;0.04974519999996119;2.tif;mask.tiff;-0.14;left;['right'];0.4391341000000466;1;0.78;3.1057683999997607;50
31;S09;A;pre;1;59.9724246790481;[0.018238199999359495, 0.016357800000150746, 0.016940500000600878, 0.016615399999864167];2;1;0.04991370000061579;3.tif;mask.tiff;-0.14;left;['right'];0.4739145000003191;1;0.854;3.224156299999777;20
32;S09;A;pre;1;59.9724246790481;[0.018127299999832758, 0.016849200000251585, 0.01600959999996121, 0.017089399999349553];33;5;0.04994819999956235;2.tif;mask.tiff;0.14;left;['right'];0.4353235999997196;1;0.751;3.0848839000000225;83
33;S09;A;pre;1;59.9724246790481;[0.005008899999666028, 0.016976400000203284, 0.016403600000558072, 0.016700999999557098];0;1;0.050081000000318454;2.tif;mask.tiff;-0.14;left;['left'];0.5152297000004182;1;0.931;3.33221709999998;18
34;S09;A;pre;1;59.9724246790481;[0.01656280000042898, 0.01689489999989746, 0.016524599999684142, 0.016622400000414927];86;4;0.05004189999999653;blank.tiff;mask.tiff;-0.14;a;['left'];0.6623970999999074;1;1.975;4.529466500000126;64
35;S09;A;pre;1;59.9724246790481;[0.0162663999999495, 0.01585030000023835, 0.016652600000270468, 0.01699919999919075];92;2;0.04950209999969957;blank.tiff;mask.tiff;-0.14;a;['left'];0.4272718000001987;1;0.717;3.0436400999997204;32
36;S09;A;pre;1;59.9724246790481;[0.013879000000088126, 0.01694339999994554, 0.01645970000026864, 0.016655200000059267];81;1;0.05005830000027345;blank.tiff;mask.tiff;0.14;a;['left'];0.5963965999999346;1;0.903;4.012947300000633;17
37;S09;A;pre;1;59.9724246790481;[0.01533709999966959, 0.017470099999627564, 0.016051700000389246, 0.016596899999967718];42;1;0.05011869999998453;3.tif;mask.tiff;-0.14;left;['right'];0.5636238000006415;1;0.731;3.1975211999997555;20
38;S09;A;pre;1;59.9724246790481;[0.006290100000114762, 0.017291799999838986, 0.016409500000008848, 0.016569499999604886];17;3;0.05027079999945272;2.tif;mask.tiff;0.14;left;['left'];0.2837603999996645;1;0.783;2.934283900000082;51
39;S09;A;pre;1;59.9724246790481;[0.010800799999742594, 0.016206100000090373, 0.016636800000014773, 0.017423000000235334];72;5;0.05026590000034048;2.tif;mask.tiff;-0.14;left;['left'];0.4599861000006058;1;0.89;3.226537200000166;82
40;S09;A;pre;1;59.9724246790481;[0.015842299999349052, 0.016433100000540435, 0.016325099999448867, 0.016965600000730774];46;1;0.049723800000720075;8.tif;mask.tiff;-0.14;right;['right'];0.2642833999998402;1;0.765;2.9307416999999987;24
41;S09;A;pre;1;59.9724246790481;[0.01693169999998645, 0.016276100000141014, 0.016731400000026042, 0.016747799999393465];90;1;0.04975529999956052;blank.tiff;mask.tiff;-0.14;a;['right'];0.3597356000000218;1;1.029;3.2924974999996266;16
42;S09;A;pre;1;59.9724246790481;[0.009415900000021793, 0.017108600000028673, 0.01654340000004595, 0.016406699999606644];36;5;0.050058699999681266;7.tif;mask.tiff;-0.14;right;['right'];2.135893699999542;1;0.794;4.8027697999996235;86
43;S09;A;pre;1;59.9724246790481;[0.004725300000245625, 0.01688170000034006, 0.016773499999544583, 0.01632160000008298];61;3;0.049976799999967625;7.tif;mask.tiff;0.14;right;['left'];0.25744329999997717;1;0.824;2.958064500000546;55
44;S09;A;pre;1;59.9724246790481;[0.005897200000617886, 0.016665199999806646, 0.016766400000051362, 0.01710929999990185];6;1;0.05054089999975986;8.tif;mask.tiff;-0.14;right;['right'];0.30110960000001796;1;1.204;3.3846518000000287;24
45;S09;A;pre;1;59.9724246790481;[0.007268299999850569, 0.016508499999872583, 0.016858500000125787, 0.01693599999998696];18;3;0.05030299999998533;3.tif;mask.tiff;-0.14;left;['left'];0.6870976000000155;1;0.779;3.337324800000715;52
46;S09;A;pre;1;59.9724246790481;[0.007238199999846984, 0.016688800000338233, 0.01682230000005802, 0.01660699999956705];58;3;0.050118099999963306;3.tif;mask.tiff;-0.14;left;['left'];0.24946510000063427;1;0.8;2.932921399999941;52
47;S09;A;pre;1;59.9724246790481;[0.012930599999890546, 0.016359899999770278, 0.01681060000009893, 0.016796700000668352];35;5;0.04996720000053756;3.tif;mask.tiff;0.14;left;['right'];0.527399499999774;1;0.945;3.3443131999993057;85
48;S09;A;pre;1;59.9724246790481;[0.0026482000002943096, 0.01724930000000313, 0.016010399999686342, 0.016590500000347674];48;2;0.04985020000003715;2.tif;mask.tiff;-0.14;left;['left'];0.36956629999986035;1;0.801;3.0528650000005655;34
49;S09;A;pre;1;59.9724246790481;[0.004005100000540551, 0.016174999999748252, 0.017200700000103097, 0.016548900000088906];26;4;0.049924599999940256;3.tif;mask.tiff;-0.14;left;['left'];0.6701267999997071;1;0.85;3.4030736000004254;68
50;S09;A;pre;1;59.9724246790481;[0.01638109999930748, 0.016736999999920954, 0.016046100000494334, 0.017636700000366545];65;4;0.050419800000781834;2.tif;mask.tiff;0.14;left;['left'];0.4155060000002777;1;0.833;3.1484821999993073;67
51;S09;A;pre;1;59.9724246790481;[0.016172599999663362, 0.016551200000321842, 0.016479799999615352, 0.01659170000039012];15;2;0.04962270000032731;8.tif;mask.tiff;0.14;right;['right'];0.3391203000001042;1;0.823;3.055284400000346;41
52;S09;A;pre;1;59.9724246790481;[0.00857339999947726, 0.016560100000788225, 0.016725599999517726, 0.016500300000188872];83;2;0.04978600000049482;blank.tiff;mask.tiff;0.14;a;['right'];0.7534209999994346;0;1.039;3.6693451000001005;33
53;S09;A;pre;1;59.9724246790481;[0.011076499999944645, 0.016843299999891315, 0.016253700000561366, 0.016875100000106613];84;3;0.049972100000559294;blank.tiff;mask.tiff;-0.14;a;['right'];0.43813570000020263;0;0.888;3.2047496000004685;48
54;S09;A;pre;1;59.9724246790481;[0.003082900000663358, 0.01661329999933514, 0.016561800000090443, 0.01656230000025971];21;3;0.049737399999685294;7.tif;mask.tiff;0.14;right;['right'];0.4366775999997117;1;0.753;3.0700430000006236;55
55;S09;A;pre;1;59.9724246790481;[0.008137699999679171, 0.01693390000036743, 0.01655690000006871, 0.016618300000118325];88;5;0.05010910000055446;blank.tiff;mask.tiff;-0.14;a;['left'];4.967436000000816;0;1.055;7.900398700000551;80
56;S09;A;pre;1;59.9724246790481;[0.010872400000152993, 0.01639160000013362, 0.016561499999625084, 0.01723889999993844];95;3;0.050191999999697146;blank.tiff;mask.tiff;0.14;a;['left'];2.5915280999997776;0;1.149;5.624833099999705;49
57;S09;A;pre;1;59.9724246790481;[0.011760399999729998, 0.01693009999962669, 0.01713259999996808, 0.016669600000568607];20;3;0.05073230000016338;7.tif;mask.tiff;-0.14;right;['right'];0.41328229999999166;1;1.246;3.546391100000619;54
58;S09;A;pre;1;59.9724246790481;[0.015755200000057812, 0.016334099999767204, 0.016524499999832187, 0.016323100000590784];29;4;0.049181700000190176;7.tif;mask.tiff;0.14;right;['right'];0.6938043999998627;1;3.072;5.659991900000023;71
59;S09;A;pre;1;59.9724246790481;[0.009966200000235403, 0.015678699999625678, 0.016898100000616978, 0.016580399999838846];41;1;0.0491572000000815;2.tif;mask.tiff;0.14;left;['left'];0.4910314999997354;1;0.928;3.307813599999463;19
60;S09;A;pre;1;59.9724246790481;[0.011035699999411008, 0.016741100000217557, 0.01688830000057351, 0.016601499999524094];98;5;0.05023090000031516;blank.tiff;mask.tiff;-0.14;a;['right'];0.2942948999998407;1;1.009;3.1776104999999006;80
61;S09;A;pre;1;59.9724246790481;[0.002782699999443139, 0.016823200000544603, 0.016893299999537703, 0.016494999999849824];23;3;0.05021149999993213;8.tif;mask.tiff;0.14;right;['left'];0.358371299999817;1;0.832;3.0750387999996747;57
62;S09;A;pre;1;59.9724246790481;[0.006765899999663816, 0.01699330000064947, 0.016767999999501626, 0.01676000000043132];63;3;0.050521300000582414;8.tif;mask.tiff;0.14;right;['right'];0.27125189999969734;1;0.789;2.9382003999999142;57
63;S09;A;pre;1;59.9724246790481;[0.00497929999983171, 0.01631050000014511, 0.016975699999420613, 0.016598800000792835];31;4;0.04988500000035856;8.tif;mask.tiff;0.14;right;['right'];0.16652559999965888;1;0.69;2.733121100000062;73
64;S09;A;pre;1;59.9724246790481;[0.01831640000000334, 0.016356200000700483, 0.01704009999957634, 0.016607800000201678];30;4;0.0500041000004785;8.tif;mask.tiff;-0.14;right;['right'];0.7072180000004664;0;0.886;3.490726399999403;72
65;S09;A;pre;1;59.9724246790481;[0.019016199999896344, 0.016617399999631743, 0.01677449999988312, 0.01702260000001843];60;3;0.05041449999953329;7.tif;mask.tiff;-0.14;right;['right'];1.1588819999997213;1;1.338;4.408561099999133;54
66;S09;A;pre;1;59.9724246790481;[0.010563599999841244, 0.016321899999638845, 0.016566400000556314, 0.01710599999933038];19;3;0.04999429999952554;3.tif;mask.tiff;0.14;left;['right'];0.6682843000007779;1;0.841;3.3846955000008165;53
67;S09;A;pre;1;59.9724246790481;[0.01766849999967235, 0.01693260000047303, 0.01603389999945648, 0.0167436000001544];1;1;0.04971010000008391;2.tif;mask.tiff;0.14;left;['left'];0.45988800000031915;1;0.851;3.8266663000003973;19
68;S09;A;pre;1;59.9724246790481;[0.004260100000465172, 0.015990799999599403, 0.01747350000005099, 0.01654690000032133];45;1;0.05001119999997172;7.tif;mask.tiff;0.14;right;['right'];0.5423097000002599;1;1.417;3.8423745999998573;23
69;S09;A;pre;1;59.9724246790481;[0.00954860000001645, 0.017358799999783514, 0.016698899999937566, 0.016102300000056857];9;2;0.05015999999977794;2.tif;mask.tiff;0.14;left;['right'];0.27156469999954425;1;0.823;2.971294100000705;35
70;S09;A;pre;1;59.9724246790481;[0.003791500000261294, 0.01641879999988305, 0.016971600000033504, 0.01621990000057849];68;4;0.049610300000495045;7.tif;mask.tiff;-0.14;right;['right'];0.7004329999999754;1;0.971;3.5506712999995216;70
71;S09;A;pre;1;59.9724246790481;[0.011273099999925762, 0.01655380000011064, 0.016837600000144448, 0.016746799999964423];57;3;0.05013820000021951;2.tif;mask.tiff;0.14;left;['left'];0.6053389000007883;1;0.809;3.28858769999988;51
72;S09;A;pre;1;59.9724246790481;[0.011991899999884481, 0.016868099999555852, 0.016944599999987986, 0.016320700000505894];12;2;0.05013340000004973;7.tif;mask.tiff;-0.14;right;['left'];0.7192251000005854;1;0.893;3.4856666000005134;38
73;S09;A;pre;1;59.9724246790481;[0.0054923000006965594, 0.01638589999947726, 0.016952599999967788, 0.016664000000673695];99;5;0.050002500000118744;blank.tiff;mask.tiff;0.14;a;['right'];0.7313460000004852;0;0.737;3.3479268999999476;81
74;S09;A;pre;1;59.9724246790481;[0.00977580000017042, 0.016670799999701558, 0.01707799999985582, 0.01655730000038602];53;2;0.0503060999999434;7.tif;mask.tiff;0.14;right;['right'];0.9900649000010162;1;0.925;3.8064022999988083;39
75;S09;A;pre;1;59.9724246790481;[0.006804099999499158, 0.016808700000183308, 0.01668719999906898, 0.01665580000008049];40;1;0.05015169999933278;2.tif;mask.tiff;-0.14;left;['left'];0.27982039999915287;1;0.896;3.063818299999184;18
76;S09;A;pre;1;59.9724246790481;[0.014102299999649404, 0.017114000000219676, 0.015984099998604506, 0.01667700000143668];79;5;0.04977510000026086;8.tif;mask.tiff;0.14;right;['right'];0.3678970000000845;1;0.871;3.1179310999996233;89
77;S09;A;pre;1;59.9724246790481;[0.014804399999775342, 0.017375400000673835, 0.015829699999812874, 0.017094099999667378];51;2;0.05029920000015409;3.tif;mask.tiff;0.14;left;['right'];0.2719586999992316;1;0.763;2.9383546999997634;37
78;S09;A;pre;1;59.9724246790481;[0.008546500001102686, 0.01668689999860362, 0.016706600001271, 0.016492299999299576];54;2;0.049885799999174196;8.tif;mask.tiff;-0.14;right;['left'];2.0996503999995184;1;0.803;4.782771500000308;40
79;S09;A;pre;1;59.9724246790481;[0.0058494999993854435, 0.016143900000315625, 0.016654299999572686, 0.016599399999904563];32;5;0.049397599999792874;2.tif;mask.tiff;-0.14;left;['right'];0.9605035999993561;1;1.127;3.960592400000678;82
80;S09;A;pre;1;59.9724246790481;[0.004607500000929576, 0.01672320000034233, 0.016659299999446375, 0.01662949999990815];59;3;0.050011999999696855;3.tif;mask.tiff;0.14;left;['right'];0.46641989999989164;1;0.76;3.0996921000005386;53
81;S09;A;pre;1;59.9724246790481;[0.003412100000787177, 0.016754300000684452, 0.017275799998969887, 0.016896900000574533];8;2;0.05092700000022887;2.tif;mask.tiff;-0.14;left;['right'];0.9248833000001468;1;1.138;3.9583725000011327;34
82;S09;A;pre;1;59.9724246790481;[0.01112230000035197, 0.016526299999895855, 0.017029099999490427, 0.0169052000001102];27;4;0.05046059999949648;3.tif;mask.tiff;0.14;left;['left'];0.3062521000010747;1;0.731;2.9227301999999327;69
83;S09;A;pre;1;59.9724246790481;[0.016196999999010586, 0.017005400000925874, 0.016679399999702582, 0.017082899999877554];44;1;0.05076770000050601;7.tif;mask.tiff;-0.14;right;['left'];1.890093899999556;1;1.018;4.806328900000153;22
84;S09;A;pre;1;59.9724246790481;[0.008457800000542193, 0.016583700000410317, 0.016719399998692097, 0.01699240000016289];96;4;0.0502954999992653;blank.tiff;mask.tiff;-0.14;a;['left'];1.0644571000011638;1;0.907;3.8474294999996346;64
85;S09;A;pre;1;59.9724246790481;[0.0036615000008168863, 0.016708099999959813, 0.016681099999914295, 0.016826399998535635];28;4;0.05021559999840974;7.tif;mask.tiff;-0.14;right;['right'];1.5295095999990735;1;0.665;4.078832899998815;70
86;S09;A;pre;1;59.9724246790481;[0.015484300000025542, 0.01636020000114513, 0.016720100000384264, 0.01674039999852539];77;5;0.049820700000054785;7.tif;mask.tiff;0.14;right;['right'];0.8484566999995877;1;0.673;3.41465750000134;87
87;S09;A;pre;1;59.9724246790481;[0.018305300000065472, 0.016333100000338163, 0.016603699999905075, 0.016599300000962103];38;5;0.04953610000120534;8.tif;mask.tiff;-0.14;right;['right'];0.7695290999999997;1;1.81;4.469161200000599;88
88;S09;A;pre;1;59.9724246790481;[0.011927399998967303, 0.01652479999938805, 0.01701850000063132, 0.0166559999997844];55;2;0.05019929999980377;8.tif;mask.tiff;0.14;right;['right'];0.3886493000009068;1;0.758;3.022041599999284;41
89;S09;A;pre;1;59.9724246790481;[0.008107999999992899, 0.016511300000274787, 0.016957300000285613, 0.01674559999992198];89;5;0.05021420000048238;blank.tiff;mask.tiff;0.14;a;['left'];0.40461879999929806;0;0.923;3.2214935000010883;81
90;S09;A;pre;1;59.9724246790481;[0.008750400000280933, 0.017573999999513035, 0.016586600000664475, 0.016212299999097013];91;1;0.05037289999927452;blank.tiff;mask.tiff;0.14;a;['left'];0.896124000000782;0;1.249;4.028796300000977;17
91;S09;A;pre;1;59.9724246790481;[0.017049000000042724, 0.016526900000826572, 0.016942199999903096, 0.016388899999583373];71;4;0.04985800000031304;8.tif;mask.tiff;0.14;right;['right'];0.6623050999987754;1;1.488;4.045117700001356;73
92;S09;A;pre;1;59.9724246790481;[0.01285210000060033, 0.016191599999729078, 0.017670600000201375, 0.016219299999647774];43;1;0.05008149999957823;3.tif;mask.tiff;0.14;left;['left'];0.537034400000266;0;1.201;3.619379599998865;21
93;S09;A;pre;1;59.9724246790481;[0.004467699998713215, 0.017095200000767363, 0.016364600000088103, 0.01697489999969548];93;2;0.05043470000055095;blank.tiff;mask.tiff;0.14;a;['right'];0.554807600001368;0;1.589;4.020999499998652;33
94;S09;A;pre;1;59.9724246790481;[0.006382999999914318, 0.016767199998867, 0.016332300001522526, 0.01725139999871317];82;2;0.050350899999102694;blank.tiff;mask.tiff;-0.14;a;['left'];2.0266955999995844;0;0.742;4.660372999998799;32
95;S09;A;pre;1;59.9724246790481;[0.007834600000933278, 0.016405399999712245, 0.01674300000013318, 0.016939899998760666];37;5;0.05008829999860609;7.tif;mask.tiff;0.14;right;['right'];0.30834779999895545;1;0.72;2.907483900000443;87
96;S09;A;pre;1;59.9724246790481;[0.013438599999062717, 0.016683800000464544, 0.01691960000061954, 0.016390499999033636];76;5;0.04999390000011772;7.tif;mask.tiff;-0.14;right;['left'];0.5182562999998481;0;0.96;3.367720599999302;86
97;S09;A;pre;1;59.9724246790481;[0.008803300001090975, 0.016923199998927885, 0.016363300001103198, 0.01696319999973639];75;5;0.05024969999976747;3.tif;mask.tiff;0.14;left;['right'];0.3448671000005561;1;1.166;3.394815600000584;85
98;S09;A;pre;1;59.9724246790481;[0.006194300000061048, 0.01698250000117696, 0.016324899999744957, 0.01702130000012403];10;2;0.050328700001045945;3.tif;mask.tiff;-0.14;left;['left'];0.45758720000048925;1;1.021;3.3578794000004564;36
99;S09;A;pre;1;59.9724246790481;[0.007276300000739866, 0.016846199998326483, 0.016464900001665228, 0.016989199999443372];74;5;0.05030029999943508;3.tif;mask.tiff;-0.14;left;['left'];0.448279400001411;1;0.737;3.0647808000012446;84
100;S09;A;pre;2;59.9724246790481;[0.003637199999502627, 0.017056200000297395, 0.016454000000521773, 0.01663439999902039];75;5;0.050144599999839556;3.tif;mask.tiff;0.14;left;['left'];0.2722690999999031;1;0.67;2.8387667999995756;85
101;S09;A;pre;2;59.9724246790481;[0.016451499999675434, 0.016347799999493873, 0.016986100001304294, 0.016116999999212567];82;2;0.049450900000010733;blank.tiff;mask.tiff;-0.14;a;['left'];0.6585494999999355;0;0.802;3.3587478999997984;32
102;S09;A;pre;2;59.9724246790481;[0.005761599999459577, 0.017426000000341446, 0.01624219999939669, 0.01675950000026205];84;3;0.050427700000000186;blank.tiff;mask.tiff;-0.14;a;['left'];0.39954519999992044;0;0.801;3.0828548000008595;48
103;S09;A;pre;2;59.9724246790481;[0.01131600000007893, 0.017430500000045868, 0.01598070000000007, 0.017070500000045286];58;3;0.05048170000009122;3.tif;mask.tiff;-0.14;left;['left'];0.9154387999988103;1;0.66;3.448821499998303;52
104;S09;A;pre;2;59.9724246790481;[0.011244499999520485, 0.01642589999937627, 0.017220600000655395, 0.016322200001013698];60;3;0.04996870000104536;7.tif;mask.tiff;-0.14;right;['right'];0.4416383000007045;1;0.855;3.174798699999883;54
105;S09;A;pre;2;59.9724246790481;[0.010089600000355858, 0.016707599999790546, 0.016069299999799114, 0.017315299999609124];86;4;0.05009219999919878;blank.tiff;mask.tiff;-0.14;a;['right'];0.4257957999998325;0;1.323;3.6255885000009584;64
106;S09;A;pre;2;59.9724246790481;[0.0067930000004707836, 0.01703570000063337, 0.016463099998873076, 0.017078099999707774];2;1;0.05057689999921422;3.tif;mask.tiff;-0.14;left;['right'];0.23670570000103908;0;0.859;2.9871461000002455;20
107;S09;A;pre;2;59.9724246790481;[0.003913700000339304, 0.016918000001169275, 0.0165008999993006, 0.01687110000057146];22;3;0.050290000001041335;8.tif;mask.tiff;-0.14;right;['left'];0.5763556000001699;0;1.224;3.6764358000000357;56
108;S09;A;pre;2;59.9724246790481;[0.006274499999562977, 0.016798999999082298, 0.01680040000064764, 0.016652000000249245];54;2;0.050251399999979185;8.tif;mask.tiff;-0.14;right;['right'];0.5131798999991588;1;0.776;3.163040199999159;40
109;S09;A;pre;2;59.9724246790481;[0.010615099999995437, 0.01645020000069053, 0.016705300000467105, 0.016918299999815645];74;5;0.05007380000097328;3.tif;mask.tiff;-0.14;left;['right'];0.2866649999996298;1;1.109;3.2861439999996946;84
110;S09;A;pre;2;59.9724246790481;[0.008953299999120645, 0.016306600000461913, 0.01666990000012447, 0.016703299999790033];32;5;0.04967980000037642;2.tif;mask.tiff;-0.14;left;['right'];0.730298500000572;1;0.936;3.5470384000000195;82
111;S09;A;pre;2;59.9724246790481;[0.012913000000480679, 0.016650399998979992, 0.016801499999928637, 0.016340500000296743];3;1;0.04979239999920537;3.tif;mask.tiff;0.14;left;['right'];0.35862989999986894;1;0.908;3.1417028999985632;21
112;S09;A;pre;2;59.9724246790481;[0.0028216999999131076, 0.016519899998456822, 0.016784300001745578, 0.01661179999973683];81;1;0.04991599999993923;blank.tiff;mask.tiff;0.14;a;['right'];0.5148095999993529;1;0.89;3.297809800000323;17
113;S09;A;pre;2;59.9724246790481;[0.003758400000151596, 0.01696980000087933, 0.01690969999981462, 0.01643270000022312];83;2;0.05031220000091707;blank.tiff;mask.tiff;0.14;a;['left'];0.5983390000001236;0;1.009;3.481500899999446;33
114;S09;A;pre;2;59.9724246790481;[0.014244799998778035, 0.016501400001288857, 0.016596999999819673, 0.016668700000082026];69;4;0.049767100001190556;7.tif;mask.tiff;0.14;right;['right'];0.39926829999967595;1;0.85;3.14903140000024;71
115;S09;A;pre;2;59.9724246790481;[0.0037712000012106728, 0.016825799999423907, 0.016102699999464676, 0.0169093000004068];85;3;0.049837799999295385;blank.tiff;mask.tiff;0.14;a;['left'];0.5466949000001478;0;0.836;3.2633851999999024;49
116;S09;A;pre;2;59.9724246790481;[0.012432300000000396, 0.016689099998984602, 0.016934500001298147, 0.016552600000068196];95;3;0.050176200000350946;blank.tiff;mask.tiff;0.14;a;['left'];0.9718864999995276;0;1.339;4.2053054999996675;49
117;S09;A;pre;2;59.9724246790481;[0.005090099999506492, 0.016710899999452522, 0.017058000001270557, 0.016826799999762443];90;1;0.05059570000048552;blank.tiff;mask.tiff;-0.14;a;['right'];0.4162460000006831;1;0.846;3.1499141000003874;16
118;S09;A;pre;2;59.9724246790481;[0.007491899999877205, 0.017331499999272637, 0.016348900000593858, 0.016647399999783374];49;2;0.05032779999964987;2.tif;mask.tiff;0.14;left;['left'];0.3866958999988128;1;0.7;2.9699490000002697;35
119;S09;A;pre;2;59.9724246790481;[0.014312199999039876, 0.01722870000048715, 0.01665809999940393, 0.016876300000149058];17;3;0.05076310000004014;2.tif;mask.tiff;0.14;left;['left'];0.5653454000002966;1;1.066;3.531198900000163;51
120;S09;A;pre;2;59.9724246790481;[0.006706000000122003, 0.016811100000268198, 0.016921299999012263, 0.016729599999962375];45;1;0.050461999999242835;7.tif;mask.tiff;0.14;right;['right'];0.3008515000001353;1;0.794;2.9840011000014783;23
121;S09;A;pre;2;59.9724246790481;[0.0191646999992372, 0.01617400000031921, 0.017356700000163983, 0.016669700000420562];78;5;0.050200400000903755;8.tif;mask.tiff;-0.14;right;['right'];0.30053899999984424;1;0.635;2.8343557999996847;88
122;S09;A;pre;2;59.9724246790481;[0.017672399999355548, 0.016755900000134716, 0.0163871000004292, 0.016922499999054708];19;3;0.05006549999961862;3.tif;mask.tiff;0.14;left;['left'];0.5922520000003715;1;1.166;3.658803500000431;53
123;S09;A;pre;2;59.9724246790481;[0.012333200000284705, 0.016342999999324093, 0.01704290000088804, 0.016316299999743933];57;3;0.049702199999956065;2.tif;mask.tiff;0.14;left;['left'];1.2901521999992838;1;2.308;5.489554899999348;51
124;S09;A;pre;2;59.9724246790481;[0.013341399999262649, 0.016163000000233296, 0.01675210000030347, 0.016574299999774667];99;5;0.049489400000311434;blank.tiff;mask.tiff;0.14;a;['right'];0.14171880000139936;1;0.732;2.7588102999998227;81
125;S09;A;pre;2;59.9724246790481;[0.011689500001011766, 0.016673500000251806, 0.016247399998974288, 0.01660699999956705];36;5;0.049527899998793146;7.tif;mask.tiff;-0.14;right;['right'];0.6888144999993528;1;0.755;3.321664699999019;86
126;S09;A;pre;2;59.9724246790481;[0.01786050000009709, 0.016267400000288035, 0.016768100000263075, 0.016644199999063858];46;1;0.04967969999961497;8.tif;mask.tiff;-0.14;right;['right'];0.10574689999884868;1;0.815;2.8216080000001966;24
127;S09;A;pre;2;59.9724246790481;[0.014839499999652617, 0.017339800000627292, 0.01580850000027567, 0.017177100000481005];93;2;0.05032540000138397;blank.tiff;mask.tiff;0.14;a;['left'];0.13424689999919792;0;0.921;2.951408900000388;33
128;S09;A;pre;2;59.9724246790481;[0.008701900000232854, 0.01713000000017928, 0.01675480000085372, 0.01676249999945867];51;2;0.05064730000049167;3.tif;mask.tiff;0.14;left;['left'];0.37930429999869375;1;0.864;3.1294244000000617;37
129;S09;A;pre;2;59.9724246790481;[0.01650539999900502, 0.01704980000067735, 0.015736999999717227, 0.017268600000534207];76;5;0.050055400000928785;7.tif;mask.tiff;-0.14;right;['left'];0.19537150000178372;1;0.79;2.8783786999993026;86
130;S09;A;pre;2;59.9724246790481;[0.006333599998470163, 0.017169500000818516, 0.016557200000534067, 0.016068599999925937];65;4;0.04979530000127852;2.tif;mask.tiff;0.14;left;['left'];0.4740412999999535;1;0.795;3.1566837999998825;67
131;S09;A;pre;2;59.9724246790481;[0.004719300000942894, 0.016741499999625375, 0.016085400000520167, 0.016794600000139326];66;4;0.04962150000028487;3.tif;mask.tiff;-0.14;left;['left'];0.35064950000014505;1;0.75;2.984197400000994;68
132;S09;A;pre;2;59.9724246790481;[0.015483499999390915, 0.016713099999833503, 0.01683709999997518, 0.01681029999963357];34;5;0.050360499999442254;3.tif;mask.tiff;-0.14;left;['left'];0.1927522999994835;1;0.728;2.8265693000012106;84
133;S09;A;pre;2;59.9724246790481;[0.008657200000016019, 0.01688359999934619, 0.016690899999957765, 0.016488299999764422];31;4;0.050062799999068375;8.tif;mask.tiff;0.14;right;['right'];0.11216400000012072;1;0.742;2.7286728999988554;73
134;S09;A;pre;2;59.9724246790481;[0.005986099999063299, 0.01665119999961462, 0.017307000000073458, 0.01567050000085146];25;4;0.04962870000053954;2.tif;mask.tiff;0.14;left;['left'];0.1320486999993591;1;0.989;2.9980921000005765;67
135;S09;A;pre;2;59.9724246790481;[0.012463999999454245, 0.01690229999985604, 0.016238300000622985, 0.01689069999883941];6;1;0.050031299999318435;8.tif;mask.tiff;-0.14;right;['right'];0.1020157000002655;1;0.781;2.752354500000365;24
136;S09;A;pre;2;59.9724246790481;[0.003152799999952549, 0.016833800000313204, 0.016754300000684452, 0.01679560000047786];67;4;0.05038370000147552;3.tif;mask.tiff;0.14;left;['right'];0.4941638000000239;1;2.025;4.410809500001051;69
137;S09;A;pre;2;59.9724246790481;[0.0032688999999663793, 0.016736100000343868, 0.016983999999865773, 0.016767700000855257];8;2;0.0504878000010649;2.tif;mask.tiff;-0.14;left;['left'];0.17700440000044182;1;0.797;2.8602520000004006;34
138;S09;A;pre;2;59.9724246790481;[0.005809300000692019, 0.017104200000176206, 0.016591399999015266, 0.016680599999745027];61;3;0.0503761999989365;7.tif;mask.tiff;0.14;right;['right'];0.2762578999991092;1;0.697;2.8591433000001416;55
139;S09;A;pre;2;59.9724246790481;[0.005020800001148018, 0.016775000000052387, 0.01709159999882104, 0.0162759000013466];70;4;0.050142500000220025;8.tif;mask.tiff;-0.14;right;['right'];0.18785039999966102;1;0.67;2.7383372000003874;72
140;S09;A;pre;2;59.9724246790481;[0.013639900000271155, 0.016976000000795466, 0.016735099998186342, 0.016276300000754418];23;3;0.049987399999736226;8.tif;mask.tiff;0.14;right;['right'];0.49705340000036813;1;0.85;3.2299710999996023;57
141;S09;A;pre;2;59.9724246790481;[0.01611380000031204, 0.01582080000116548, 0.01681309999912628, 0.016696299999239272];73;5;0.04933019999953103;2.tif;mask.tiff;0.14;left;['right'];0.688808799999606;1;1.053;3.638453900000968;83
142;S09;A;pre;2;59.9724246790481;[0.019103499998891493, 0.016867700000148034, 0.016848200000822544, 0.016283599999951548];38;5;0.049999500000922126;8.tif;mask.tiff;-0.14;right;['right'];0.5640247999999701;1;0.738;3.1977220000007947;88
143;S09;A;pre;2;59.9724246790481;[0.010475499999301974, 0.01662639999995008, 0.016274300000077346, 0.01736680000067281];47;1;0.05026750000070024;8.tif;mask.tiff;0.14;right;['right'];0.6588194000014482;1;1.036;3.57492270000148;25
144;S09;A;pre;2;59.9724246790481;[0.00993430000016815, 0.016132500000821892, 0.015931799998725182, 0.01668210000025283];5;1;0.048746399999799905;7.tif;mask.tiff;0.14;right;['right'];0.7158199999994395;1;1.065;3.6488098000008904;23
145;S09;A;pre;2;59.9724246790481;[0.0028602000002138084, 0.01657369999884395, 0.016821200000777026, 0.016596999999819673];30;4;0.04999189999944065;8.tif;mask.tiff;-0.14;right;['right'];0.1302652999984275;1;0.742;2.763194300001487;72
146;S09;A;pre;2;59.9724246790481;[0.014007699999638135, 0.01659800000015821, 0.017515999999886844, 0.01600499999949534];29;4;0.05011899999954039;7.tif;mask.tiff;0.14;right;['right'];0.14622289999897475;1;0.714;2.762721099999908;71
147;S09;A;pre;2;59.9724246790481;[0.004083299998455914, 0.01688080000167247, 0.016761099999712314, 0.016325799999322044];62;3;0.04996770000070683;8.tif;mask.tiff;-0.14;right;['right'];0.3352902000005997;1;0.853;3.0850649000003614;56
148;S09;A;pre;2;59.9724246790481;[0.015662199999496806, 0.017199100000652834, 0.01673309999932826, 0.016233399999691756];77;5;0.05016559999967285;7.tif;mask.tiff;0.14;right;['right'];0.1536871999996947;1;0.738;2.80370000000039;87
149;S09;A;pre;2;59.9724246790481;[0.007049299998470815, 0.016783400000349502, 0.016896299999643816, 0.016006700001526042];64;4;0.04968640000151936;2.tif;mask.tiff;-0.14;left;['left'];0.7260253999993438;0;0.715;3.326359799999409;66
150;S09;A;pre;2;59.9724246790481;[0.012542200000098092, 0.01680320000014035, 0.01666329999898153, 0.016475100001116516];79;5;0.049941600000238395;8.tif;mask.tiff;0.14;right;['right'];0.14967620000061288;1;0.838;2.8828532000006817;89
151;S09;A;pre;2;59.9724246790481;[0.010266700001011486, 0.016616299999441253, 0.016666199999235687, 0.01629289999982575];96;4;0.04957539999850269;blank.tiff;mask.tiff;-0.14;a;['left'];0.5135632000001351;0;1.055;3.44709309999962;64
152;S09;A;pre;2;59.9724246790481;[0.015064000001075328, 0.01682470000014291, 0.016485399999510264, 0.016872500000317814];35;5;0.05018259999997099;3.tif;mask.tiff;0.14;left;['left'];0.47375149999970745;1;0.838;3.8072362000002613;85
153;S09;A;pre;2;59.9724246790481;[0.018367399999988265, 0.016521300000022165, 0.01674280000042927, 0.017223700000613462];1;1;0.0504878000010649;2.tif;mask.tiff;0.14;left;['left'];0.8647937000005186;1;0.897;3.664648699999816;19
154;S09;A;pre;2;59.9724246790481;[0.008551200000511017, 0.016778699999122182, 0.016871499999979278, 0.016445799999928568];55;2;0.05009599999903003;8.tif;mask.tiff;0.14;right;['right'];0.6350304000006872;1;1.209;3.71849900000052;41
155;S09;A;pre;2;59.9724246790481;[0.00678199999856588, 0.017010200001095654, 0.01649129999896104, 0.016559900001084316];94;3;0.05006140000114101;blank.tiff;mask.tiff;-0.14;a;['right'];0.7217670999998518;0;1.12;3.7217909000009968;48
156;S09;A;pre;2;59.9724246790481;[0.006779800000003888, 0.0169170999997732, 0.01622729999871808, 0.017273400000703987];14;2;0.05041779999919527;8.tif;mask.tiff;-0.14;right;['right'];0.20199099999990722;1;0.675;2.751590699999724;40
157;S09;A;pre;2;59.9724246790481;[0.008476599999994505, 0.016543699999601813, 0.016310300001350697, 0.01665799999864248];43;1;0.04951199999959499;3.tif;mask.tiff;0.14;left;['right'];0.22358549999989918;1;0.778;2.873211699999956;21
158;S09;A;pre;2;59.9724246790481;[0.006934799999726238, 0.017117299999881652, 0.016428700000687968, 0.01680830000077549];89;5;0.05035430000134511;blank.tiff;mask.tiff;0.14;a;['left'];0.4711903999996139;0;0.993;3.354539100000693;81
159;S09;A;pre;2;59.9724246790481;[0.010447300001033, 0.016569999999774154, 0.016794299999673967, 0.016367000000172993];56;3;0.049731299999621115;2.tif;mask.tiff;-0.14;left;['left'];0.6195755000007921;0;1.318;3.8197947000007844;50
160;S09;A;pre;2;59.9724246790481;[0.009335800001281314, 0.016433699998742668, 0.01724140000078478, 0.016066599999248865];40;1;0.04974169999877631;2.tif;mask.tiff;-0.14;left;['left'];0.8136780000004364;1;0.879;3.5804262999990897;18
161;S09;A;pre;2;59.9724246790481;[0.012352499999906286, 0.016654999999445863, 0.01670910000029835, 0.01660269999956654];71;4;0.04996679999931075;8.tif;mask.tiff;0.14;right;['right'];0.36653320000004896;1;1.318;3.5662940999991406;73
162;S09;A;pre;2;59.9724246790481;[0.007750000000669388, 0.016672099998686463, 0.016772300001321128, 0.016733699998439988];59;3;0.05017809999844758;3.tif;mask.tiff;0.14;left;['left'];0.1829035999999178;1;0.76;2.8162457999987964;53
163;S09;A;pre;2;59.9724246790481;[0.018002099999648635, 0.01650560000052792, 0.016893899999558926, 0.016524100001333863];26;4;0.04992360000142071;3.tif;mask.tiff;-0.14;left;['left'];0.4513168000012229;1;0.63;2.9842283999987558;68
164;S09;A;pre;2;59.9724246790481;[0.011291200000414392, 0.016500199999427423, 0.016898800000490155, 0.016772400000263588];44;1;0.050171400000181166;7.tif;mask.tiff;-0.14;right;['right'];1.5838483999996242;1;0.739;4.2173796000006405;22
165;S09;A;pre;2;59.9724246790481;[0.0029174999999668216, 0.01655939999909606, 0.016700300000593415, 0.01713949999975739];20;3;0.050399199999446864;7.tif;mask.tiff;-0.14;right;['right'];0.3547128000009252;1;0.706;2.95462310000039;54
166;S09;A;pre;2;59.9724246790481;[0.005493299999216106, 0.016841000000567874, 0.016877199999726145, 0.016632999999274034];24;4;0.05035119999956805;2.tif;mask.tiff;-0.14;left;['left'];0.4906355999992229;1;0.84;3.2072783000003255;66
167;S09;A;pre;2;59.9724246790481;[0.011588000001211185, 0.015896499999143998, 0.017140199999630568, 0.01668500000050699];12;2;0.049721699999281554;7.tif;mask.tiff;-0.14;right;['left'];0.5294586999989406;1;0.848;3.262598399998751;38
168;S09;A;pre;2;59.9724246790481;[0.004428800000823685, 0.016786899999715388, 0.01670139999987441, 0.016719600000214996];98;5;0.050207899999804795;blank.tiff;mask.tiff;-0.14;a;['right'];0.7059439000004204;0;0.795;3.389283599999544;80
169;S09;A;pre;2;59.9724246790481;[0.01779319999877771, 0.01689960000112478, 0.016379499998947722, 0.01630030000160332];87;4;0.04957940000167582;blank.tiff;mask.tiff;0.14;a;['right'];0.3689186999999947;0;0.84;3.1193555999998352;65
170;S09;A;pre;2;59.9724246790481;[0.01613829999951122, 0.01608920000035141, 0.017025699999067, 0.016459000000395463];53;2;0.049573899999813875;7.tif;mask.tiff;0.14;right;['right'];0.2439195999995718;1;0.7;2.8438413999992918;39
171;S09;A;pre;2;59.9724246790481;[0.0037842999990971293, 0.01686100000006263, 0.016720300000088173, 0.016752900000938098];15;2;0.0503342000010889;8.tif;mask.tiff;0.14;right;['right'];0.8300306999990426;1;1.274;3.9799954000009166;41
172;S09;A;pre;2;59.9724246790481;[0.016402999999627355, 0.01683450000018638, 0.016532899999219808, 0.016489600000568316];97;4;0.049856999999974505;blank.tiff;mask.tiff;0.14;a;['right'];0.5505161000000953;0;0.866;3.316849500000899;65
173;S09;A;pre;2;59.9724246790481;[0.010591500000373344, 0.01652049999938754, 0.01694399999905727, 0.016898500000024796];41;1;0.050362999998469604;2.tif;mask.tiff;0.14;left;['left'];0.4733137999992323;1;2.125;4.473252899999352;19
174;S09;A;pre;2;59.9724246790481;[0.01410790000045381, 0.016610499998932937, 0.016456299999845214, 0.016838900000948342];11;2;0.049905699999726494;3.tif;mask.tiff;0.14;left;['left'];0.7217342000003555;1;0.654;3.2721304000006057;37
175;S09;A;pre;2;59.9724246790481;[0.003106200001639081, 0.016844999998284038, 0.016669000000547385, 0.01718810000056692];21;3;0.05070209999939834;7.tif;mask.tiff;0.14;right;['left'];1.567094599999109;1;0.875;4.317029600000751;55
176;S09;A;pre;2;59.9724246790481;[0.010403500000393251, 0.016739999999117572, 0.016530599999896367, 0.016495100000611274];10;2;0.04976569999962521;3.tif;mask.tiff;-0.14;left;['right'];0.5251786999997421;0;0.789;3.825483799999347;36
177;S09;A;pre;2;59.9724246790481;[0.013484200000675628, 0.01675739999882353, 0.016586700001425925, 0.01656139999977313];48;2;0.049905500000022585;2.tif;mask.tiff;-0.14;left;['left'];2.7047633999991376;1;0.761;5.354636800000662;34
178;S09;A;pre;2;59.9724246790481;[0.018350999998801854, 0.01668430000063381, 0.017060700000001816, 0.01656610000100045];27;4;0.05031110000163608;3.tif;mask.tiff;0.14;left;['left'];0.48006529999838676;1;0.831;3.213971000001038;69
179;S09;A;pre;2;59.9724246790481;[0.004965300000549178, 0.016814399999930174, 0.016967300000032992, 0.0167526999994152];92;2;0.050534399999378365;blank.tiff;mask.tiff;-0.14;a;['right'];0.8610005000009551;0;0.917;3.6608648000001267;32
180;S09;A;pre;2;59.9724246790481;[0.015350899999248213, 0.016726800000469666, 0.016884099999515456, 0.01646729999993113];50;2;0.05007819999991625;3.tif;mask.tiff;-0.14;left;['right'];0.48772099999951024;0;1.265;3.6541338000006363;36
181;S09;A;pre;2;59.9724246790481;[0.004951699998855474, 0.016891900000700844, 0.016143699998792727, 0.017166300000099];33;5;0.05020189999959257;2.tif;mask.tiff;0.14;left;['left'];0.5302025000000867;1;0.922;3.3468996999999945;83
182;S09;A;pre;2;59.9724246790481;[0.006631599999309401, 0.01667780000025232, 0.016920800000661984, 0.0164450999982364];68;4;0.050043699999150704;7.tif;mask.tiff;-0.14;right;['right'];0.1621180000001914;1;1.006;3.062210900001446;70
183;S09;A;pre;2;59.9724246790481;[0.015401099999508006, 0.016760299999077688, 0.016365900000891997, 0.017264899999645422];42;1;0.05039109999961511;3.tif;mask.tiff;-0.14;left;['left'];0.43886790000033216;1;0.879;3.205312399999457;20
184;S09;A;pre;2;59.9724246790481;[0.010292099999787752, 0.01683959999900253, 0.016444000000774395, 0.017258800000490737];80;1;0.05054240000026766;blank.tiff;mask.tiff;-0.14;a;['right'];0.3842406999992818;0;1.255;3.517296500000157;16
185;S09;A;pre;2;59.9724246790481;[0.01277479999953357, 0.0172192999998515, 0.016405399999712245, 0.01619380000011006];88;5;0.049818499999673804;blank.tiff;mask.tiff;-0.14;a;['left'];0.4923858999991353;0;0.652;3.0253472000003967;80
186;S09;A;pre;2;59.9724246790481;[0.0099926000002597, 0.016837600000144448, 0.016611500001090462, 0.01685689999976603];0;1;0.05030600000100094;2.tif;mask.tiff;-0.14;left;['left'];0.22513120000076015;0;1.298;3.408414300000004;18
187;S09;A;pre;2;59.9724246790481;[0.01332870000078401, 0.016646599999148748, 0.016533300000446616, 0.016572399999859044];52;2;0.04975229999945441;7.tif;mask.tiff;-0.14;right;['right'];0.7452979000008781;0;0.731;3.3781777000003785;38
188;S09;A;pre;2;59.9724246790481;[0.016022599998905207, 0.017048300000169547, 0.016618499999822234, 0.01648600000044098];28;4;0.05015280000043276;7.tif;mask.tiff;-0.14;right;['right'];1.7092905999998038;1;1.098;4.709191900001315;70
189;S09;A;pre;2;59.9724246790481;[0.017385700000886573, 0.016523700000107056, 0.01636999999936961, 0.016889799999262323];9;2;0.04978349999873899;2.tif;mask.tiff;0.14;left;['left'];0.3449192000007315;1;0.729;2.978089700000055;35
190;S09;A;pre;2;59.9724246790481;[0.01704280000012659, 0.016537799998332048, 0.016852100001415238, 0.01664379999965604];13;2;0.050033699999403325;7.tif;mask.tiff;0.14;right;['right'];0.2621082000005117;1;1.023;3.195627400000376;39
191;S09;A;pre;2;59.9724246790481;[0.011336300000039046, 0.016286999998555984, 0.016877500000191503, 0.016354999999748543];18;3;0.04951949999849603;3.tif;mask.tiff;-0.14;left;['left'];0.7923062999998365;1;0.857;3.5260042999998404;52
192;S09;A;pre;2;59.9724246790481;[0.017385799999829032, 0.016670799999701558, 0.016802500000267173, 0.016528499998457846];91;1;0.05000179999842658;blank.tiff;mask.tiff;0.14;a;['right'];0.35351489999993646;0;0.695;2.953657199999725;17
193;S09;A;pre;2;59.9724246790481;[0.0149332000000868, 0.01656639999964682, 0.016939600000114297, 0.016446499999801745];16;3;0.04995249999956286;2.tif;mask.tiff;-0.14;left;['left'];0.7061659999999392;1;1.386;3.989441399999123;50
194;S09;A;pre;2;59.9724246790481;[0.019364100000530016, 0.016335599999365513, 0.016793099999631522, 0.016279100000247126];7;1;0.04940779999924416;8.tif;mask.tiff;0.14;right;['right'];0.3954899000000296;1;0.768;3.6956984999997076;25
195;S09;A;pre;2;59.9724246790481;[0.0056488999998691725, 0.017528200000015204, 0.016410399999585934, 0.01654680000137887];37;5;0.05048540000098001;7.tif;mask.tiff;0.14;right;['right'];0.2844154999984312;1;0.922;3.084558200000174;87
196;S09;A;pre;2;59.9724246790481;[0.004633000000467291, 0.016613399999187095, 0.01701360000151908, 0.01671179999902961];39;5;0.050338799999735784;8.tif;mask.tiff;0.14;right;['right'];0.33075580000149785;1;0.733;2.9475991999988764;89
197;S09;A;pre;2;59.9724246790481;[0.0057768999995460035, 0.017271099999561557, 0.016248300000370364, 0.016593899999861605];72;5;0.050113299999793526;2.tif;mask.tiff;-0.14;left;['left'];0.10452570000052219;1;1.081;3.0708725999993476;82
198;S09;A;pre;2;59.9724246790481;[0.010254200000417768, 0.01708169999983511, 0.016399699999965378, 0.01627360000020417];63;3;0.04975500000000466;8.tif;mask.tiff;0.14;right;['right'];0.10370100000000093;1;0.661;2.6371589000009408;57
199;S09;A;pre;2;59.9724246790481;[0.01855230000001029, 0.01688049999938812, 0.01641410000047472, 0.01688819999981206];4;1;0.0501827999996749;7.tif;mask.tiff;-0.14;right;['right'];0.14438440000049013;1;0.801;2.8439493000005314;22
200;S09;A;pre;3;59.9724246790481;[0.011395100000299863, 0.016736800000217045, 0.016509200000655255, 0.01722879999942961];27;4;0.05047480000030191;3.tif;mask.tiff;0.14;left;['left'];0.6186195999998745;1;0.812;3.318730000000869;69
201;S09;A;pre;3;59.9724246790481;[0.01322989999971469, 0.016666200001054676, 0.016292199999952572, 0.01643060000060359];13;2;0.04938900000161084;7.tif;mask.tiff;0.14;right;['right'];0.6646361999992223;1;1.118;3.6811715999992884;39
202;S09;A;pre;3;59.9724246790481;[0.01706240000021353, 0.016993199998978525, 0.016888899999685236, 0.016693300000042655];68;4;0.050575399998706416;7.tif;mask.tiff;-0.14;right;['right'];0.20470860000023094;1;0.825;2.9205380999992485;70
203;S09;A;pre;3;59.9724246790481;[0.005012800000258721, 0.016663500000504428, 0.01701130000037665, 0.016792200000054436];6;1;0.050467000000935514;8.tif;mask.tiff;-0.14;right;['right'];0.14765230000011798;1;0.757;2.7808557999996992;24
204;S09;A;pre;3;59.9724246790481;[0.006134400000519236, 0.017062699998859898, 0.016364200000680285, 0.016775100000813836];62;3;0.05020200000035402;8.tif;mask.tiff;-0.14;right;['right'];0.22898390000045765;1;0.726;2.8461685000002035;56
205;S09;A;pre;3;59.9724246790481;[0.008071899999777088, 0.017380399998728535, 0.016590900000664988, 0.016025900000386173];39;5;0.049997199999779696;8.tif;mask.tiff;0.14;right;['right'];0.5225666000005731;0;0.769;3.1723778000014136;89
206;S09;A;pre;3;59.9724246790481;[0.011571400000320864, 0.016837699999086908, 0.016784800000095856, 0.01617210000040359];40;1;0.04979459999958635;2.tif;mask.tiff;-0.14;left;['left'];0.32532679999894754;1;0.971;3.1746294000004127;18
207;S09;A;pre;3;59.9724246790481;[0.00632210000003397, 0.016986699998597032, 0.016417200000432786, 0.016769800000474788];95;3;0.050173699999504606;blank.tiff;mask.tiff;0.14;a;['right'];2.9672604000006686;0;1.572;6.433623200000511;49
208;S09;A;pre;3;59.9724246790481;[0.01665289999982633, 0.016899100000955514, 0.016731799998524366, 0.016197400000237394];25;4;0.049828299999717274;2.tif;mask.tiff;0.14;left;['left'];0.43461049999859824;1;0.911;3.234547299998667;67
209;S09;A;pre;3;59.9724246790481;[0.01614539999900444, 0.017021400000885478, 0.01640620000034687, 0.01658270000007178];90;1;0.05001030000130413;blank.tiff;mask.tiff;-0.14;a;['left'];0.3351118000009592;1;0.77;3.0021257999997033;16
210;S09;A;pre;3;59.9724246790481;[0.008779799998592352, 0.016473100000439445, 0.016736100000343868, 0.016676799999913783];21;3;0.049886000000697095;7.tif;mask.tiff;0.14;right;['right'];0.1357903999996779;1;0.987;3.002526399999624;55
211;S09;A;pre;3;59.9724246790481;[0.018082799999319832, 0.017127999999502208, 0.01602149999962421, 0.017296200001510442];52;2;0.05044570000063686;7.tif;mask.tiff;-0.14;right;['right'];0.190419299999121;1;0.832;2.9246179999991;38
212;S09;A;pre;3;59.9724246790481;[0.005115699999805656, 0.01703310000084457, 0.01652739999917685, 0.016574000001128297];48;2;0.05013450000114972;2.tif;mask.tiff;-0.14;left;['left'];0.16744919999837293;1;1.0;3.0501397999996698;34
213;S09;A;pre;3;59.9724246790481;[0.004595500000505126, 0.01676249999945867, 0.01634879999983241, 0.017433600000003935];80;1;0.05054489999929501;blank.tiff;mask.tiff;-0.14;a;['left'];0.5055489999995189;1;1.846;4.239153000000442;16
214;S09;A;pre;3;59.9724246790481;[0.006193100000018603, 0.017097900001317612, 0.016896799999813084, 0.016288499999063788];93;2;0.05028320000019448;blank.tiff;mask.tiff;0.14;a;['left'];0.4646225000014965;0;1.067;3.414216999999553;33
215;S09;A;pre;3;59.9724246790481;[0.017745999999533524, 0.016247200001089368, 0.01666540000042005, 0.01698489999944286];45;1;0.04989750000095228;7.tif;mask.tiff;0.14;right;['right'];0.2232162000000244;1;0.729;2.8563892999991367;23
216;S09;A;pre;3;59.9724246790481;[0.0029458999997586943, 0.01629499999944528, 0.016778200000771903, 0.01675230000000738];76;5;0.049825500000224565;7.tif;mask.tiff;-0.14;right;['right'];0.21823739999854297;1;1.031;3.135189699998591;86
217;S09;A;pre;3;59.9724246790481;[0.004125599998587859, 0.016572400001678034, 0.017361499998514773, 0.016284799999993993];33;5;0.0502187000001868;2.tif;mask.tiff;0.14;left;['left'];0.1816742000009981;1;0.668;2.7317736000004516;83
218;S09;A;pre;3;59.9724246790481;[0.00800359999993816, 0.01625150000108988, 0.01703819999966072, 0.016531899998881272];34;5;0.04982159999963187;3.tif;mask.tiff;-0.14;left;['right'];0.6236972999995487;1;0.866;3.3738053999986732;84
219;S09;A;pre;3;59.9724246790481;[0.005007899999327492, 0.016308599999319995, 0.01705960000072082, 0.016817300000184332];63;3;0.05018550000022515;8.tif;mask.tiff;0.14;right;['left'];0.5181550999986939;1;0.949;3.351208100000804;57
220;S09;A;pre;3;59.9724246790481;[0.010065899999972316, 0.016158300000824966, 0.01699200000075507, 0.016928099999859114];30;4;0.05007840000143915;8.tif;mask.tiff;-0.14;right;['right'];0.6397490999988804;1;1.807;4.322787600000083;72
221;S09;A;pre;3;59.9724246790481;[0.01692879999973229, 0.016386100000090664, 0.016701000000466593, 0.01657309999973222];64;4;0.04966020000028948;2.tif;mask.tiff;-0.14;left;['left'];0.6810631000007561;1;0.876;3.447681499999817;66
222;S09;A;pre;3;59.9724246790481;[0.003211899998859735, 0.01635570000144071, 0.016671599998517195, 0.016964300000836374];44;1;0.04999160000079428;7.tif;mask.tiff;-0.14;right;['right'];0.3900307999992947;1;0.931;3.2069216999989294;22
223;S09;A;pre;3;59.9724246790481;[0.017954299999473733, 0.016496700000061537, 0.016886399998838897, 0.0170815000001312];1;1;0.050464599999031634;2.tif;mask.tiff;0.14;left;['left'];0.21246959999916726;1;0.76;2.878758499999094;19
224;S09;A;pre;3;59.9724246790481;[0.013717199999518925, 0.017090299999836134, 0.016349199999240227, 0.016645200001221383];89;5;0.050084700000297744;blank.tiff;mask.tiff;0.14;a;['right'];1.310414400000809;0;0.699;3.91000189999977;81
225;S09;A;pre;3;59.9724246790481;[0.0033806000010372372, 0.017164599999887287, 0.016609099999186583, 0.01671360000000277];67;4;0.05048729999907664;3.tif;mask.tiff;0.14;left;['left'];0.20846770000025572;1;0.79;2.8754604999994626;69
226;S09;A;pre;3;59.9724246790481;[0.005785499999547028, 0.01624650000121619, 0.017055999998774496, 0.016523399999641697];69;4;0.049825899999632384;7.tif;mask.tiff;0.14;right;['right'];0.25235000000066066;1;0.819;2.969360199998846;71
227;S09;A;pre;3;59.9724246790481;[0.00690279999980703, 0.017238300000826712, 0.01727049999863084, 0.016274700001304154];5;1;0.050783500000761705;7.tif;mask.tiff;0.14;right;['right'];3.1095812000003207;1;3.666;8.659948599999552;23
228;S09;A;pre;3;59.9724246790481;[0.004013100000520353, 0.015988699999070377, 0.017462800000430434, 0.016329899999618647];74;5;0.04978139999911946;3.tif;mask.tiff;-0.14;left;['right'];1.9756219999999303;1;72.562;76.42825769999945;84
229;S09;A;pre;3;59.9724246790481;[0.01625909999893338, 0.016662199999700533, 0.0165367999998125, 0.016995400001178496];60;3;0.05019440000069153;7.tif;mask.tiff;-0.14;right;['right'];0.5392585000008694;1;1.373;3.7554454000000987;54
230;S09;A;pre;3;59.9724246790481;[0.01700160000109463, 0.016975900000034017, 0.01626109999961045, 0.016351500000382657];36;5;0.049588500000027125;7.tif;mask.tiff;-0.14;right;['right'];0.4307067999998253;1;0.846;3.1136492999994516;86
231;S09;A;pre;3;59.9724246790481;[0.01724370000010822, 0.016390400000091176, 0.017595499999515596, 0.015967799999998533];59;3;0.049953699999605305;3.tif;mask.tiff;0.14;left;['left'];0.21768100000008417;1;0.848;2.9013051000001724;53
232;S09;A;pre;3;59.9724246790481;[0.01593949999914912, 0.01664330000130576, 0.01741089999995893, 0.01594409999961499];73;5;0.04999830000087968;2.tif;mask.tiff;0.14;left;['left'];0.590931200000341;1;0.841;3.2741384000000835;83
233;S09;A;pre;3;59.9724246790481;[0.01725619999888295, 0.01662140000007639, 0.015788300001077005, 0.01673809999920195];15;2;0.049147800000355346;8.tif;mask.tiff;0.14;right;['right'];0.21711950000099023;1;0.767;2.8177223000002414;41
234;S09;A;pre;3;59.9724246790481;[0.016516099998625577, 0.016819400001622853, 0.01602659999844036, 0.01671130000067933];71;4;0.049557300000742543;8.tif;mask.tiff;0.14;right;['right'];0.35407710000072257;1;0.806;3.0040876000002754;73
235;S09;A;pre;3;59.9724246790481;[0.01703289999932167, 0.01700660000096832, 0.016100699998787604, 0.016492000000653206];8;2;0.04959930000040913;2.tif;mask.tiff;-0.14;left;['left'];0.4332940000003873;1;0.858;3.1331617000014376;34
236;S09;A;pre;3;59.9724246790481;[0.01419519999944896, 0.017106400000557187, 0.016211000000112108, 0.016829399999551242];91;1;0.05014680000022054;blank.tiff;mask.tiff;0.14;a;['left'];2.0705801000003703;0;0.813;4.720321499999045;17
237;S09;A;pre;3;59.9724246790481;[0.0162348000012571, 0.016667399999278132, 0.016729500001019915, 0.01673299999856681];4;1;0.05012989999886486;7.tif;mask.tiff;-0.14;right;['right'];0.47675539999909233;1;1.214;3.526337200000853;22
238;S09;A;pre;3;59.9724246790481;[0.01681810000081896, 0.016226699999606353, 0.016729799999666284, 0.0167037999999593];14;2;0.04966029999923194;8.tif;mask.tiff;-0.14;right;['right'];0.5757852999995521;1;0.891;3.3085957000002963;40
239;S09;A;pre;3;59.9724246790481;[0.01632389999940642, 0.01696980000087933, 0.01648170000044047, 0.01701839999986987];43;1;0.05046990000118967;3.tif;mask.tiff;0.14;left;['right'];0.49076099999911094;1;0.776;3.1074538999982906;21
240;S09;A;pre;3;59.9724246790481;[0.014471999998932006, 0.01595850000012433, 0.017368900000292342, 0.015936499999952503];11;2;0.049263900000369176;3.tif;mask.tiff;0.14;left;['right'];0.29165809999904013;1;1.628;3.7598627999996097;37
241;S09;A;pre;3;59.9724246790481;[0.016604399999778252, 0.016739800001232652, 0.016589499999099644, 0.016484400000990718];28;4;0.049813700001323014;7.tif;mask.tiff;-0.14;right;['right'];0.612151499999527;1;1.358;3.812508199998774;70
242;S09;A;pre;3;59.9724246790481;[0.015950799999700394, 0.016681099999914295, 0.01671360000000277, 0.01691420000133803];97;4;0.0503089000012551;blank.tiff;mask.tiff;0.14;a;['left'];0.2597349000006943;1;0.795;2.8929707999996026;65
243;S09;A;pre;3;59.9724246790481;[0.016739499998948304, 0.016363800001272466, 0.017073399998480454, 0.016645499999867752];94;3;0.05008269999962067;blank.tiff;mask.tiff;-0.14;a;['right'];0.7067489000000933;0;0.742;3.29074700000092;48
244;S09;A;pre;3;59.9724246790481;[0.017455100000006496, 0.01541449999967881, 0.016758499999923515, 0.01651980000133335];75;5;0.048692800000935677;3.tif;mask.tiff;0.14;left;['left'];0.5324586000006093;1;0.908;3.2822710999989795;85
245;S09;A;pre;3;59.9724246790481;[0.016213999999308726, 0.01653740000074322, 0.017097100000682985, 0.016567900000154623];50;2;0.05020240000158083;3.tif;mask.tiff;-0.14;left;['left'];0.2753416000014113;1;0.913;3.024564499999542;36
246;S09;A;pre;3;59.9724246790481;[0.016306100000292645, 0.016588499998761108, 0.016304400000080932, 0.01780260000123235];81;1;0.05069550000007439;blank.tiff;mask.tiff;0.14;a;['left'];0.8945892000010645;0;0.816;3.560498999999254;17
247;S09;A;pre;3;59.9724246790481;[0.016455599999972037, 0.01668950000021141, 0.0164522000013676, 0.016723999999157968];56;3;0.04986570000073698;2.tif;mask.tiff;-0.14;left;['left'];1.6826356000001397;1;1.038;4.5652343000001565;50
248;S09;A;pre;3;59.9724246790481;[0.01720960000056948, 0.016095400000267546, 0.016552999999476015, 0.017327699999441393];24;4;0.04997609999918495;2.tif;mask.tiff;-0.14;left;['left'];0.29552630000034696;1;1.404;3.5451515999993717;66
249;S09;A;pre;3;59.9724246790481;[0.01563960000021325, 0.01614019999942684, 0.016543800000363262, 0.01672829999915848];78;5;0.04941229999894858;8.tif;mask.tiff;-0.14;right;['right'];0.19206660000054399;1;0.922;2.957951599999433;88
250;S09;A;pre;3;59.9724246790481;[0.016803800001071068, 0.016674599999532802, 0.016602900001089438, 0.016456599998491583];29;4;0.04973409999911382;7.tif;mask.tiff;0.14;right;['right'];0.3059824000010849;1;0.738;2.8894172000000253;71
251;S09;A;pre;3;59.9724246790481;[0.01721689999976661, 0.01607270000022254, 0.01659749999998894, 0.016785100000561215];70;4;0.049455300000772695;8.tif;mask.tiff;-0.14;right;['right'];0.316099599998779;1;0.865;3.0160467000005156;72
252;S09;A;pre;3;59.9724246790481;[0.016879300001164665, 0.016135099998791702, 0.016301999999996042, 0.016421400001490838];38;5;0.04885850000027858;8.tif;mask.tiff;-0.14;right;['right'];1.0309744000005594;1;1.225;4.0972760999993625;88
253;S09;A;pre;3;59.9724246790481;[0.017061600001397892, 0.016834099998959573, 0.01608959999975923, 0.016487000000779517];98;5;0.04941069999949832;blank.tiff;mask.tiff;-0.14;a;['right'];0.36233919999904174;1;0.858;3.06224519999887;80
254;S09;A;pre;3;59.9724246790481;[0.016664599999785423, 0.016702299999451498, 0.01630509999995411, 0.017244900000150665];72;5;0.05025229999955627;2.tif;mask.tiff;-0.14;left;['left'];0.267005199999403;1;0.854;2.9663710000004357;82
255;S09;A;pre;3;59.9724246790481;[0.015906399999948917, 0.016637099999570637, 0.016934900000705966, 0.016125299998748233];99;5;0.049697299999024835;blank.tiff;mask.tiff;0.14;a;['right'];1.0134154000006674;0;1.057;3.9123544999984006;81
256;S09;A;pre;3;59.9724246790481;[0.015146899999308516, 0.017641800001001684, 0.015785600000526756, 0.016430099998615333];83;2;0.04985750000014377;blank.tiff;mask.tiff;0.14;a;['left'];6.047309300000052;0;1.36;9.247410600000876;33
257;S09;A;pre;3;59.9724246790481;[0.016315500000928296, 0.016973699999653036, 0.016289299999698414, 0.016303599999446305];79;5;0.049566599998797756;8.tif;mask.tiff;0.14;right;['right'];0.5755832999984705;1;1.924;4.342228799998338;89
258;S09;A;pre;3;59.9724246790481;[0.016114900001412025, 0.01667230000020936, 0.016911299999264884, 0.016984300000331132];85;3;0.05056789999980538;blank.tiff;mask.tiff;0.14;a;['left'];0.9425448999991204;0;1.102;3.8931783999996696;49
259;S09;A;pre;3;59.9724246790481;[0.017390499999237363, 0.01613320000069507, 0.016375799999877927, 0.01697779999994964];18;3;0.049486800000522635;3.tif;mask.tiff;-0.14;left;['left'];0.26885330000004615;1;0.713;2.8184602000001178;52
260;S09;A;pre;3;59.9724246790481;[0.016951800000242656, 0.016596999999819673, 0.01678640000136511, 0.016854800000146497];41;1;0.05023820000133128;2.tif;mask.tiff;0.14;left;['left'];0.24201739999989513;1;0.82;2.9077598999992915;19
261;S09;A;pre;3;59.9724246790481;[0.01653500000065833, 0.016603699999905075, 0.01688780000040424, 0.01698439999927359];66;4;0.05047589999958291;3.tif;mask.tiff;-0.14;left;['right'];0.27814540000144916;1;1.46;3.5779872000002797;68
262;S09;A;pre;3;59.9724246790481;[0.01679139999941981, 0.016436100000646547, 0.016884900000150083, 0.016907899998841458];22;3;0.05022889999963809;8.tif;mask.tiff;-0.14;right;['right'];0.3188348000003316;1;0.734;2.8857318999998824;56
263;S09;A;pre;3;59.9724246790481;[0.016513900000063586, 0.0176988999992318, 0.01640170000064245, 0.015695799998866278];0;1;0.049796399998740526;2.tif;mask.tiff;-0.14;left;['left'];0.4856632000009995;1;0.732;3.050932800000737;18
264;S09;A;pre;3;59.9724246790481;[0.016593599999396247, 0.016698600000381703, 0.017175200000565383, 0.01620550000006915];84;3;0.050079300001016236;blank.tiff;mask.tiff;-0.14;a;['left'];0.9035327000001416;0;0.952;3.7038601000003837;48
265;S09;A;pre;3;59.9724246790481;[0.01653479999913543, 0.016610700000455836, 0.016633400000500842, 0.017390899998645182];87;4;0.05063499999960186;blank.tiff;mask.tiff;0.14;a;['left'];0.8977034999988973;0;1.173;3.913812599999801;65
266;S09;A;pre;3;59.9724246790481;[0.017275599999265978, 0.015935200000967598, 0.017271499998969375, 0.01671170000008715];96;4;0.04991840000002412;blank.tiff;mask.tiff;-0.14;a;['right'];0.8263664999994944;0;0.881;3.5428955999996106;64
267;S09;A;pre;3;59.9724246790481;[0.015652699999918696, 0.016453000000183238, 0.01668479999898409, 0.01665789999970002];58;3;0.04979569999886735;3.tif;mask.tiff;-0.14;left;['left'];0.4550309999995079;1;0.875;3.1719547000011517;52
268;S09;A;pre;3;59.9724246790481;[0.016501799998877686, 0.01696570000058273, 0.016485399999510264, 0.01682760000039707];49;2;0.05027870000049006;2.tif;mask.tiff;0.14;left;['left'];0.1902909999989788;1;0.77;2.806427600000461;35
269;S09;A;pre;3;59.9724246790481;[0.016742000001613633, 0.016124099998705788, 0.016564499999731197, 0.016721500000130618];53;2;0.0494100999985676;7.tif;mask.tiff;0.14;right;['right'];1.0930767000008927;1;0.864;3.7921404000007897;39
270;S09;A;pre;3;59.9724246790481;[0.013850199999069446, 0.016116900000270107, 0.01735469999948691, 0.01597300000139512];35;5;0.04944460000115214;3.tif;mask.tiff;0.14;left;['right'];0.5321475000000646;1;0.747;3.115243800000826;85
271;S09;A;pre;3;59.9724246790481;[0.015582700001687044, 0.016443499998786137, 0.016691500000888482, 0.016463799998746254];61;3;0.04959879999842087;7.tif;mask.tiff;0.14;right;['right'];0.657568499998888;1;1.738;4.2404007999994064;55
272;S09;A;pre;3;59.9724246790481;[0.016201700000237906, 0.016247499999735737, 0.01726490000146441, 0.016265199999907054];51;2;0.0497776000011072;3.tif;mask.tiff;0.14;left;['left'];0.380176599999686;1;0.911;3.1296471000005113;37
273;S09;A;pre;3;59.9724246790481;[0.016483499999594642, 0.016889799999262323, 0.01724120000108087, 0.015735299999505514];65;4;0.04986629999984871;2.tif;mask.tiff;0.14;left;['left'];0.3588227000000188;1;0.756;2.9586187999993854;67
274;S09;A;pre;3;59.9724246790481;[0.015795899998920504, 0.01637710000068182, 0.016443500000605127, 0.017497099999673082];86;4;0.05031770000096003;blank.tiff;mask.tiff;-0.14;a;['right'];0.8500055000004068;0;1.18;3.8666597999999794;64
275;S09;A;pre;3;59.9724246790481;[0.016881200001080288, 0.015941099998599384, 0.016916399999900023, 0.01622289999977511];10;2;0.049080399998274515;3.tif;mask.tiff;-0.14;left;['left'];0.8857951999998477;0;0.864;3.5855803999984346;36
276;S09;A;pre;3;59.9724246790481;[0.016833899999255664, 0.018012299999099923, 0.014949500000511762, 0.01677170000039041];2;1;0.049733500000002095;3.tif;mask.tiff;-0.14;left;['left'];0.546065999998973;0;0.674;3.062171600000511;20
277;S09;A;pre;3;59.9724246790481;[0.015140899999096291, 0.016132300001117983, 0.01619570000002568, 0.01698679999935848];47;1;0.049314800000502146;8.tif;mask.tiff;0.14;right;['right'];0.6000578999992285;1;0.866;3.2995333000017126;25
278;S09;A;pre;3;59.9724246790481;[0.01661959999910323, 0.01677440000094066, 0.016485899999679532, 0.017343699999400997];7;1;0.05060400000002119;8.tif;mask.tiff;0.14;right;['right'];0.4734000999997079;1;0.771;3.089579600000434;25
279;S09;A;pre;3;59.9724246790481;[0.016329699999914737, 0.017163000000437023, 0.015906399999948917, 0.016844099998706952];55;2;0.04991349999909289;8.tif;mask.tiff;0.14;right;['right'];0.16272870000102557;1;0.701;2.6988271999998688;41
280;S09;A;pre;3;59.9724246790481;[0.016351400001440197, 0.016434199998911936, 0.016405000000304426, 0.016528899999684654];82;2;0.049368099998901016;blank.tiff;mask.tiff;-0.14;a;['left'];0.6913539999986824;0;1.229;5.030364799999006;32
281;S09;A;pre;3;59.9724246790481;[0.01641620000009425, 0.016617900000710506, 0.016548499999771593, 0.017044500000338303];57;3;0.0502109000008204;2.tif;mask.tiff;0.14;left;['right'];1.2823526000011043;1;4.078;7.206506699998499;51
282;S09;A;pre;3;59.9724246790481;[0.014720799999849987, 0.016796500000054948, 0.015931700001601712, 0.016901199998756056];16;3;0.049629400000412716;2.tif;mask.tiff;-0.14;left;['right'];2.576121800000692;0;1.886;6.305278899999394;50
283;S09;A;pre;3;59.9724246790481;[0.016826600000058534, 0.01754590000018652, 0.016189399999348097, 0.016859499999554828];46;1;0.050594799999089446;8.tif;mask.tiff;-0.14;right;['right'];0.8423425000000861;1;0.997;3.6874563000001217;24
284;S09;A;pre;3;59.9724246790481;[0.016613199999483186, 0.017326699999102857, 0.01665810000122292, 0.016105400000014924];88;5;0.0500902000003407;blank.tiff;mask.tiff;-0.14;a;['right'];1.2245001000010234;0;1.03;4.099145599999247;80
285;S09;A;pre;3;59.9724246790481;[0.014865900000586407, 0.01686879999942903, 0.01698469999973895, 0.0160531000001356];12;2;0.04990659999930358;7.tif;mask.tiff;-0.14;right;['right'];0.7326634000000922;1;0.845;3.4239932999989833;38
286;S09;A;pre;3;59.9724246790481;[0.016690200000084587, 0.016642599999613594, 0.01654430000053253, 0.01666330000080052];32;5;0.04985020000094664;2.tif;mask.tiff;-0.14;left;['left'];1.1384409000002051;1;0.878;3.859659699999611;82
287;S09;A;pre;3;59.9724246790481;[0.01591560000088066, 0.01708399999915855, 0.01736010000058741, 0.015612600000167731];3;1;0.05005669999991369;3.tif;mask.tiff;0.14;left;['right'];0.4527717999990273;1;0.907;3.210573399999703;21
288;S09;A;pre;3;59.9724246790481;[0.017453200000090874, 0.015717899999799556, 0.016272800001388532, 0.01691699999901175];19;3;0.04890770000019984;3.tif;mask.tiff;0.14;left;['right'];0.5567773000002489;1;1.225;3.627663400000529;53
289;S09;A;pre;3;59.9724246790481;[0.01582830000006652, 0.01655890000074578, 0.017556900000272435, 0.0160916000004363];26;4;0.050207400001454516;3.tif;mask.tiff;-0.14;left;['right'];0.39157130000057805;1;0.797;3.045688700000028;68
290;S09;A;pre;3;59.9724246790481;[0.016115399999762303, 0.017617399998925976, 0.015596500001265667, 0.017094499999075197];9;2;0.05030839999926684;2.tif;mask.tiff;0.14;left;['left'];0.3192588000001706;1;0.938;3.108924599999227;35
291;S09;A;pre;3;59.9724246790481;[0.012612099999387283, 0.01604390000102285, 0.01711339999928896, 0.01661480000075244];31;4;0.049772100001064246;8.tif;mask.tiff;0.14;right;['right'];0.18952439999884518;1;0.874;2.9145564999998896;73
292;S09;A;pre;3;59.9724246790481;[0.016216500000155065, 0.016625899999780813, 0.01628080000045884, 0.016235600000072736];23;3;0.04914230000031239;8.tif;mask.tiff;0.14;right;['right'];0.21089700000084122;1;0.799;2.860436500001015;57
293;S09;A;pre;3;59.9724246790481;[0.013033299999733572, 0.016535599999770056, 0.01654400000006717, 0.016322400000717607];77;5;0.049402000000554835;7.tif;mask.tiff;0.14;right;['right'];0.24936150000030466;1;0.824;2.920683000000281;87
294;S09;A;pre;3;59.9724246790481;[0.015336099999331054, 0.017148400000223774, 0.015659900000173366, 0.016872300000613905];92;2;0.049680600001011044;blank.tiff;mask.tiff;-0.14;a;['right'];0.6625985999999102;0;0.884;3.3985506999997597;32
295;S09;A;pre;3;59.9724246790481;[0.01690250000137894, 0.016627299999527168, 0.016737399999328773, 0.01665560000037658];20;3;0.05002029999923252;7.tif;mask.tiff;-0.14;right;['right'];0.299311900000248;1;0.986;3.140484400000787;54
296;S09;A;pre;3;59.9724246790481;[0.015347000000474509, 0.017827199999373988, 0.016639900000882335, 0.01658289999977569];37;5;0.051050000000032014;7.tif;mask.tiff;0.14;right;['right'];0.25085129999933997;1;0.849;2.9574634000000515;87
297;S09;A;pre;3;59.9724246790481;[0.014413499999136548, 0.0171055000009801, 0.01697539999986475, 0.016289099999994505];17;3;0.050370000000839354;2.tif;mask.tiff;0.14;left;['left'];0.16170579999925394;1;0.871;2.8794333999994706;51
298;S09;A;pre;3;59.9724246790481;[0.016891600000235485, 0.016481999999086838, 0.016988700001093093, 0.01628279999931692];54;2;0.04975349999949685;8.tif;mask.tiff;-0.14;right;['right'];0.23487280000153987;1;0.775;2.8570338999998057;40
299;S09;A;pre;3;59.9724246790481;[0.01677400000153284, 0.016835699998409837, 0.01628049999999348, 0.017084900000554626];42;1;0.05020109999895794;3.tif;mask.tiff;-0.14;left;['right'];0.8349557000001369;0;0.947;3.6610868999996455;20
300;S09;A;pre;4;59.9724246790481;[0.01665040000079898, 0.016318399999363464, 0.016253499999947962, 0.01730370000041148];43;1;0.04987559999972291;3.tif;mask.tiff;0.14;left;['left'];1.0755504999997356;1;0.895;3.813918100000592;21
301;S09;A;pre;4;59.9724246790481;[0.016069299999799114, 0.017140599999038386, 0.01674730000013369, 0.01600690000122995];62;3;0.04989480000040203;8.tif;mask.tiff;-0.14;right;['right'];0.4851715000004333;1;0.855;3.1852588999990985;56
302;S09;A;pre;4;59.9724246790481;[0.01344989999961399, 0.016501799998877686, 0.016697700000804616, 0.015887100000327337];96;4;0.04908660000000964;blank.tiff;mask.tiff;-0.14;a;['right'];0.20528220000051078;1;0.856;2.904886299998907;64
303;S09;A;pre;4;59.9724246790481;[0.01633360000050743, 0.016533099998923717, 0.01666520000071614, 0.016925699999774224];39;5;0.05012399999941408;8.tif;mask.tiff;0.14;right;['right'];0.23143460000028426;1;1.23;3.301420900001176;89
304;S09;A;pre;4;59.9724246790481;[0.012538100001620478, 0.016020199998820317, 0.016768499999670894, 0.017269100000703475];24;4;0.050057799999194685;2.tif;mask.tiff;-0.14;left;['left'];0.4498511999991024;1;0.867;3.1517732000011165;66
305;S09;A;pre;4;59.9724246790481;[0.016093599999294383, 0.016725299999961862, 0.016987599999993108, 0.016687700001057237];83;2;0.05040060000101221;blank.tiff;mask.tiff;0.14;a;['right'];0.8378102999995463;0;0.821;3.50538620000043;33
306;S09;A;pre;4;59.9724246790481;[0.015539400001216563, 0.01572159999886935, 0.016957699999693432, 0.01613990000078047];45;1;0.048819199999343255;7.tif;mask.tiff;0.14;right;['left'];0.3336390999993455;1;0.603;2.783442100000684;23
307;S09;A;pre;4;59.9724246790481;[0.015858499999012565, 0.016708099999959813, 0.016705100000763196, 0.016354399998817826];19;3;0.049767599999540835;3.tif;mask.tiff;0.14;left;['right'];0.3810165999984747;1;0.661;2.880589800000962;53
308;S09;A;pre;4;59.9724246790481;[0.017329400001472095, 0.016109799998957897, 0.016501800000696676, 0.0162756999998237];95;3;0.04888729999947827;blank.tiff;mask.tiff;0.14;a;['right'];0.9352130000006582;0;0.721;3.5011826999998448;49
309;S09;A;pre;4;59.9724246790481;[0.016484400000990718, 0.01631949999864446, 0.016757900000811787, 0.01710330000059912];79;5;0.05018070000005537;8.tif;mask.tiff;0.14;right;['right'];0.18255060000046797;1;0.715;2.731718600000022;89
310;S09;A;pre;4;59.9724246790481;[0.016486999998960528, 0.01601420000042708, 0.016751099999964936, 0.016458899999634014];65;4;0.04922420000002603;2.tif;mask.tiff;0.14;left;['left'];1.3139530999997078;1;0.799;3.9473746000003302;67
311;S09;A;pre;4;59.9724246790481;[0.011916699999346747, 0.01699949999965611, 0.01693390000036743, 0.01705220000076224];73;5;0.05098560000078578;2.tif;mask.tiff;0.14;left;['left'];0.7870613000013691;1;1.439;4.069995900001231;83
312;S09;A;pre;4;59.9724246790481;[0.01612139999997453, 0.016664599999785423, 0.016659800001434633, 0.016608199999609496];22;3;0.04993260000082955;8.tif;mask.tiff;-0.14;right;['left'];0.6871391000004223;0;0.762;3.285671400000865;56
313;S09;A;pre;4;59.9724246790481;[0.01332890000048792, 0.01733579999927315, 0.01603369999975257, 0.016561800000999938];33;5;0.04993130000002566;2.tif;mask.tiff;0.14;left;['left'];0.4244589999998425;1;1.021;3.291619300000093;83
314;S09;A;pre;4;59.9724246790481;[0.016046900000219466, 0.01656829999956244, 0.016340500000296743, 0.016664999999193242];8;2;0.049573799999052426;2.tif;mask.tiff;-0.14;left;['right'];0.3525350999989314;1;0.795;2.9855170999999245;34
315;S09;A;pre;4;59.9724246790481;[0.016974599999230122, 0.016658700000334647, 0.016718099999707192, 0.016741299999921466];58;3;0.050118099999963306;3.tif;mask.tiff;-0.14;left;['left'];0.6236042000000452;1;1.349;3.8064429000005475;52
316;S09;A;pre;4;59.9724246790481;[0.01661919999969541, 0.016770899999755784, 0.01632390000122541, 0.01707949999945413];28;4;0.05017430000043532;7.tif;mask.tiff;-0.14;right;['right'];0.6634928999992553;1;1.381;3.8796246999991126;70
317;S09;A;pre;4;59.9724246790481;[0.01648430000022927, 0.01674000000093656, 0.01653470000019297, 0.016690999998900224];12;2;0.049965700000029756;7.tif;mask.tiff;-0.14;right;['right'];0.44771200000104727;1;0.923;3.214494300000297;38
318;S09;A;pre;4;59.9724246790481;[0.01594230000046082, 0.016836099999636644, 0.015939099999741302, 0.017820200000642217];85;3;0.05059540000002016;blank.tiff;mask.tiff;0.14;a;['left'];0.5183579000004102;0;0.774;3.134832700001425;49
319;S09;A;pre;4;59.9724246790481;[0.0167327999988629, 0.017036400000506546, 0.016632799999570125, 0.016189900001336355];93;2;0.049859100001413026;blank.tiff;mask.tiff;0.14;a;['left'];0.3663823999995657;0;0.664;2.866645999998582;33
320;S09;A;pre;4;59.9724246790481;[0.01654670000061742, 0.017341099999612197, 0.015975300000718562, 0.016645199999402394];29;4;0.04996159999973315;7.tif;mask.tiff;0.14;right;['right'];0.3739010999997845;1;0.664;2.873497900000075;71
321;S09;A;pre;4;59.9724246790481;[0.014012999999977183, 0.016748199999710778, 0.016611400000329013, 0.017397899999195943];6;1;0.05075749999923573;8.tif;mask.tiff;-0.14;right;['right'];0.2767945999985386;1;0.878;2.9928392000001622;24
322;S09;A;pre;4;59.9724246790481;[0.01662390000092273, 0.017152999998870655, 0.016577200000028824, 0.016100799999549054];32;5;0.04983099999844853;2.tif;mask.tiff;-0.14;left;['right'];0.3473720999991201;1;0.785;2.9803709000007075;82
323;S09;A;pre;4;59.9724246790481;[0.016073599999799626, 0.01628549999986717, 0.016209299999900395, 0.016613200001302175];60;3;0.04910800000106974;7.tif;mask.tiff;-0.14;right;['right'];1.2756233000000066;1;0.849;3.958175300000221;54
324;S09;A;pre;4;59.9724246790481;[0.016506399999343557, 0.016374400000131573, 0.016412500001024455, 0.016773599998487043];78;5;0.04956049999964307;8.tif;mask.tiff;-0.14;right;['right'];0.17437369999970542;1;0.907;2.924090600001364;88
325;S09;A;pre;4;59.9724246790481;[0.01636549999966519, 0.017273600000407896, 0.01593209999919054, 0.016857500000696746];99;5;0.05006320000029518;blank.tiff;mask.tiff;0.14;a;['right'];0.7127960999987408;0;0.749;3.295282600000064;81
326;S09;A;pre;4;59.9724246790481;[0.016492900000230293, 0.016985499998554587, 0.016364200000680285, 0.01672820000021602];34;5;0.05007789999945089;3.tif;mask.tiff;-0.14;left;['right'];3.3482698000007076;1;0.997;6.18095650000032;84
327;S09;A;pre;4;59.9724246790481;[0.014877800000249408, 0.016673400001309346, 0.016469899999719928, 0.015690899999754038];56;3;0.04883420000078331;2.tif;mask.tiff;-0.14;left;['left'];0.43360390000088955;1;1.139;3.417234099999405;50
328;S09;A;pre;4;59.9724246790481;[0.016023500000301283, 0.016599000000496744, 0.01731659999859403, 0.015905100000964012];70;4;0.049820700000054785;8.tif;mask.tiff;-0.14;right;['right'];0.2724969000009878;1;0.79;2.9050769999994372;72
329;S09;A;pre;4;59.9724246790481;[0.01664879999952973, 0.016426500000306987, 0.016560500000196043, 0.016841500000737142];59;3;0.04982850000124017;3.tif;mask.tiff;0.14;left;['left'];0.34682079999947746;1;0.871;3.062766699998974;53
330;S09;A;pre;4;59.9724246790481;[0.01641830000153277, 0.017579399998794543, 0.015750100001241663, 0.016753899999457644];21;3;0.05008339999949385;7.tif;mask.tiff;0.14;right;['right'];0.2112899000003381;1;0.825;2.8792550999987725;55
331;S09;A;pre;4;59.9724246790481;[0.016817399999126792, 0.01653740000074322, 0.017105299999457202, 0.016245500000877655];89;5;0.049888200001078076;blank.tiff;mask.tiff;0.14;a;['right'];0.34477810000134923;1;1.074;3.260849500000404;81
332;S09;A;pre;4;59.9724246790481;[0.0165127999989636, 0.016736900000978494, 0.01693869999871822, 0.01722410000002128];63;3;0.050899699999717996;8.tif;mask.tiff;0.14;right;['right'];0.22432500000104483;1;1.061;3.125622300000032;57
333;S09;A;pre;4;59.9724246790481;[0.015977899998688372, 0.016308300000673626, 0.016683899999407004, 0.01682700000128534];0;1;0.04981920000136597;2.tif;mask.tiff;-0.14;left;['left'];0.1951258000008238;1;0.758;2.795732099999441;18
334;S09;A;pre;4;59.9724246790481;[0.01466190000064671, 0.01607499999954598, 0.017186300001412746, 0.016114899999593035];50;2;0.04937620000055176;3.tif;mask.tiff;-0.14;left;['left'];0.20303679999960877;1;0.765;2.8037600999996357;36
335;S09;A;pre;4;59.9724246790481;[0.016214299999774084, 0.017498500001238426, 0.0155743999985134, 0.016840100000990788];57;3;0.04991300000074261;2.tif;mask.tiff;0.14;left;['left'];0.17989769999985583;1;0.812;2.829583400000047;51
336;S09;A;pre;4;59.9724246790481;[0.016627099999823258, 0.01660460000130115, 0.017041999999491964, 0.015906500000710366];15;2;0.04955310000150348;8.tif;mask.tiff;0.14;right;['right'];0.18570220000037807;1;0.87;2.902523899998414;41
337;S09;A;pre;4;59.9724246790481;[0.01727779999964696, 0.015788500000780914, 0.016692699999111937, 0.017312199999651057];40;1;0.04979339999954391;2.tif;mask.tiff;-0.14;left;['left'];0.17778700000053504;1;0.805;2.8292160000000877;18
338;S09;A;pre;4;59.9724246790481;[0.01766719999977795, 0.01555019999977958, 0.016780399999333895, 0.017011900001307367];77;5;0.04934250000042084;7.tif;mask.tiff;0.14;right;['right'];0.6540576000006695;1;0.781;3.2705461000005016;87
339;S09;A;pre;4;59.9724246790481;[0.014530700000250363, 0.017307899999650544, 0.015858299999308656, 0.016751099999964936];74;5;0.049917299998924136;3.tif;mask.tiff;-0.14;left;['left'];0.40625269999873126;1;0.982;3.22204260000035;84
340;S09;A;pre;4;59.9724246790481;[0.016598199999862118, 0.016811400000733556, 0.016807199999675504, 0.017097500000090804];49;2;0.050716100000499864;2.tif;mask.tiff;0.14;left;['right'];0.5234567000006791;1;0.912;3.2729882999992697;35
341;S09;A;pre;4;59.9724246790481;[0.016029999998863786, 0.016697500001100707, 0.017051599999831524, 0.016221300000324845];35;5;0.049970400001257076;3.tif;mask.tiff;0.14;left;['left'];0.45029799999974784;1;0.864;3.1495354999988194;85
342;S09;A;pre;4;59.9724246790481;[0.016305899998769746, 0.016511900001205504, 0.016920000000027358, 0.01647199999933946];80;1;0.04990390000057232;blank.tiff;mask.tiff;-0.14;a;['right'];0.8177926000007574;0;0.755;3.4178568000006635;16
343;S09;A;pre;4;59.9724246790481;[0.014160400000037043, 0.017308000000411994, 0.016666400000758586, 0.015706000000136555];23;3;0.049680400001307135;8.tif;mask.tiff;0.14;right;['right'];0.3063377999988006;1;0.774;2.9227492999998503;57
344;S09;A;pre;4;59.9724246790481;[0.011240499999985332, 0.017220300000190036, 0.016717799999241834, 0.01658820000011474];82;2;0.05052629999954661;blank.tiff;mask.tiff;-0.14;a;['left'];0.62322949999907;0;0.781;3.2396872000008443;32
345;S09;A;pre;4;59.9724246790481;[0.016088200000012876, 0.016736400000809226, 0.01588379999884637, 0.0170815000001312];27;4;0.0497016999997868;3.tif;mask.tiff;0.14;left;['left'];0.32952599999953236;1;0.804;2.9858401999990747;69
346;S09;A;pre;4;59.9724246790481;[0.014082499999858555, 0.016792800000985153, 0.017037399999026093, 0.01612329999989015];53;2;0.049953499999901396;7.tif;mask.tiff;0.14;right;['right'];0.26062330000058864;1;0.811;2.9225884999996197;39
347;S09;A;pre;4;59.9724246790481;[0.01615529999980936, 0.01677220000055968, 0.016288899998471607, 0.016584599999987404];7;1;0.04964569999901869;8.tif;mask.tiff;0.14;right;['right'];1.2968416000003344;1;1.089;4.238759699999719;25
348;S09;A;pre;4;59.9724246790481;[0.017419599998902413, 0.016028500000174972, 0.016008000000510947, 0.016816400000607246];72;5;0.048852900001293165;2.tif;mask.tiff;-0.14;left;['left'];0.9703107999994245;1;0.771;3.5906864999997197;82
349;S09;A;pre;4;59.9724246790481;[0.015431199999511591, 0.016352599999663653, 0.01703820000147971, 0.016438499998912448];46;1;0.04982930000005581;8.tif;mask.tiff;-0.14;right;['right'];0.29669600000124774;1;0.924;3.0725169999986974;24
350;S09;A;pre;4;59.9724246790481;[0.012205799999719602, 0.01691249999930733, 0.01621560000057798, 0.017030200000590412];11;2;0.05015830000047572;3.tif;mask.tiff;0.14;left;['right'];1.5269090000001597;1;0.793;4.183111000000281;37
351;S09;A;pre;4;59.9724246790481;[0.014551199999914388, 0.016704799998478848, 0.016132400000060443, 0.016806400000859867];88;5;0.04964359999939916;blank.tiff;mask.tiff;-0.14;a;['right'];1.0382487000006222;0;2.592;5.474088400000255;80
352;S09;A;pre;4;59.9724246790481;[0.015668900001401198, 0.01660759999867878, 0.01676720000068599, 0.016688699999576784];26;4;0.05006349999894155;3.tif;mask.tiff;-0.14;left;['right'];0.37588319999849773;1;1.81;4.032025700000304;68
353;S09;A;pre;4;59.9724246790481;[0.015520299999479903, 0.017569199999343255, 0.016327600000295206, 0.016841300001033233];1;1;0.05073810000067169;2.tif;mask.tiff;0.14;left;['left'];0.6265740999988338;1;0.875;3.344394600000669;19
354;S09;A;pre;4;59.9724246790481;[0.012486200001148973, 0.0171515999991243, 0.016779800000222167, 0.016279499999654945];44;1;0.05021089999900141;7.tif;mask.tiff;-0.14;right;['right'];0.4502893999997468;1;2.438;4.726510200000121;22
355;S09;A;pre;4;59.9724246790481;[0.015395700000226498, 0.017303399999946123, 0.016467499999635038, 0.016485100000863895];36;5;0.050256000000445056;7.tif;mask.tiff;-0.14;right;['right'];0.6246988999992027;1;0.837;3.3146968000000925;86
356;S09;A;pre;4;59.9724246790481;[0.016321199998856173, 0.016804200000478886, 0.016354499999579275, 0.017457600000852835];2;1;0.050616300000910996;3.tif;mask.tiff;-0.14;left;['right'];0.14625899999919056;1;0.812;2.8143082999995386;20
357;S09;A;pre;4;59.9724246790481;[0.010444400000778842, 0.016565099998842925, 0.01748330000009446, 0.016655000001264852];14;2;0.05070340000020224;8.tif;mask.tiff;-0.14;right;['right'];0.23462610000024142;1;0.724;3.455910499998936;40
358;S09;A;pre;4;59.9724246790481;[0.016454299999168143, 0.017575900001247646, 0.016124899999340414, 0.016690399999788497];37;5;0.05039120000037656;7.tif;mask.tiff;0.14;right;['right'];0.32891579999886744;1;0.747;2.9140754000000015;87
359;S09;A;pre;4;59.9724246790481;[0.017058800000086194, 0.015660099999877275, 0.017675799999778974, 0.015815400000064983];67;4;0.04915129999972123;3.tif;mask.tiff;0.14;left;['right'];0.5873756999990292;0;1.017;3.445215100000496;69
360;S09;A;pre;4;59.9724246790481;[0.016283500001009088, 0.016711899999791058, 0.016061599999375176, 0.01696269999956712];71;4;0.049736199998733355;8.tif;mask.tiff;0.14;right;['right'];0.42002529999990657;0;1.097;3.373731300000145;73
361;S09;A;pre;4;59.9724246790481;[0.016003499998987536, 0.017203800000061165, 0.015948600001138402, 0.016669199998432305];76;5;0.04982159999963187;7.tif;mask.tiff;-0.14;right;['right'];0.5226882000006299;1;0.799;3.1794417000000976;86
362;S09;A;pre;4;59.9724246790481;[0.015171600000030594, 0.017001099999106373, 0.016489800000272226, 0.016413299999840092];94;3;0.04990419999921869;blank.tiff;mask.tiff;-0.14;a;['right'];0.5432825999996567;0;1.408;3.796866799999407;48
363;S09;A;pre;4;59.9724246790481;[0.01816789999975299, 0.01589580000108981, 0.016584699998929864, 0.01677220000055968];18;3;0.04925270000057935;3.tif;mask.tiff;-0.14;left;['left'];0.24240479999934905;1;0.763;2.84701750000022;52
364;S09;A;pre;4;59.9724246790481;[0.016277500000796863, 0.01662430000033055, 0.01680289999967499, 0.016746100000091246];69;4;0.05017330000009679;7.tif;mask.tiff;0.14;right;['right'];0.35338659999979427;1;0.945;3.1423279999999068;71
365;S09;A;pre;4;59.9724246790481;[0.015774499999679392, 0.016649400000460446, 0.0160120000000461, 0.01641879999988305];20;3;0.049080200000389596;7.tif;mask.tiff;-0.14;right;['right'];0.3967179999999644;1;0.815;3.057259899998826;54
366;S09;A;pre;4;59.9724246790481;[0.013930600000094273, 0.01629559999855701, 0.015793800001119962, 0.017182600000523962];48;2;0.04927200000020093;2.tif;mask.tiff;-0.14;left;['left'];0.5754010000000562;1;0.962;3.3859310999996524;34
367;S09;A;pre;4;59.9724246790481;[0.016903899999306304, 0.016121700000439887, 0.016659299999446375, 0.017167500000141445];66;4;0.04994850000002771;3.tif;mask.tiff;-0.14;left;['left'];0.21010279999973136;1;0.87;2.932994899998448;68
368;S09;A;pre;4;59.9724246790481;[0.012379499999951804, 0.017428400000426336, 0.01648919999934151, 0.017001199999867822];41;1;0.05091879999963567;2.tif;mask.tiff;0.14;left;['left'];1.5490809999992052;1;1.185;4.577250399999684;19
369;S09;A;pre;4;59.9724246790481;[0.01808840000012424, 0.015293899999960558, 0.01662399999986519, 0.016600599999947008];84;3;0.04851849999977276;blank.tiff;mask.tiff;-0.14;a;['right'];0.660010699999475;0;0.704;3.212099500000477;48
370;S09;A;pre;4;59.9724246790481;[0.015879899998253677, 0.016906600001675542, 0.016565399999308283, 0.015846500000407104];31;4;0.04931850000139093;8.tif;mask.tiff;0.14;right;['right'];0.5849995999997191;1;0.868;3.308596099999704;73
371;S09;A;pre;4;59.9724246790481;[0.01352749999932712, 0.01696780000020226, 0.016451299999971525, 0.016013000000384636];10;2;0.04943210000055842;3.tif;mask.tiff;-0.14;left;['left'];0.6649972000013804;1;0.706;3.2178516999993008;36
372;S09;A;pre;4;59.9724246790481;[0.017540599999847473, 0.01658760000100301, 0.01597629999923811, 0.017055700000128127];64;4;0.049619600000369246;2.tif;mask.tiff;-0.14;left;['left'];0.52446400000008;1;0.947;3.3171952000011515;66
373;S09;A;pre;4;59.9724246790481;[0.0157801000004838, 0.01721509999879345, 0.016489400000864407, 0.01680560000022524];13;2;0.050510099999883096;7.tif;mask.tiff;0.14;right;['right'];0.16241510000145354;1;0.779;2.7867158999997628;39
374;S09;A;pre;4;59.9724246790481;[0.01639429999886488, 0.017108800000642077, 0.01639719999911904, 0.01622000000133994];55;2;0.049726000001101056;8.tif;mask.tiff;0.14;right;['right'];0.159910200000013;1;1.467;3.4693129000006593;41
375;S09;A;pre;4;59.9724246790481;[0.017235299999811104, 0.016470299999127747, 0.016583900000114227, 0.01648130000103265];9;2;0.049535500000274624;2.tif;mask.tiff;0.14;left;['left'];0.9129044999990583;1;1.915;4.674753799999962;35
376;S09;A;pre;4;59.9724246790481;[0.012909399998534354, 0.01611400000001595, 0.017302400001426577, 0.016550599999391125];52;2;0.04996700000083365;7.tif;mask.tiff;-0.14;right;['right'];0.4454693000006955;0;0.848;3.1298800999993546;38
377;S09;A;pre;4;59.9724246790481;[0.01587669999935315, 0.017440199999327888, 0.016410800000812742, 0.015764100000524195];42;1;0.049615100000664825;3.tif;mask.tiff;-0.14;left;['left'];0.41118550000101095;1;1.415;3.6620137999998406;20
378;S09;A;pre;4;59.9724246790481;[0.012686699999903794, 0.017300100000284147, 0.015849400000661262, 0.01735759999974107];5;1;0.05050710000068648;7.tif;mask.tiff;0.14;right;['right'];0.37219220000042696;1;0.811;3.0217097000004287;23
379;S09;A;pre;4;59.9724246790481;[0.017239800001334515, 0.01568079999924521, 0.016753899999457644, 0.01721449999968172];16;3;0.049649199998384574;2.tif;mask.tiff;-0.14;left;['left'];0.3767141000007541;1;0.72;2.942722700001468;50
380;S09;A;pre;4;59.9724246790481;[0.01062150000143447, 0.016806199999336968, 0.016662399999404442, 0.015827700000954792];91;1;0.0492962999996962;blank.tiff;mask.tiff;0.14;a;['left'];0.42626019999988785;0;0.687;2.9630096000000776;17
381;S09;A;pre;4;59.9724246790481;[0.016977900000711088, 0.016364499999326654, 0.017380499999489984, 0.016529399999853922];54;2;0.05027439999867056;8.tif;mask.tiff;-0.14;right;['right'];0.3091193000000203;1;0.577;2.726301599999715;40
382;S09;A;pre;4;59.9724246790481;[0.016828400001031696, 0.01678910000009637, 0.017420700000002398, 0.016156100000443985];51;2;0.05036590000054275;3.tif;mask.tiff;0.14;left;['left'];0.20351250000021537;1;0.831;2.8760105000001204;37
383;S09;A;pre;4;59.9724246790481;[0.016839100000652252, 0.016557299999476527, 0.016623100000288105, 0.01914260000012291];30;4;0.05232299999988754;8.tif;mask.tiff;-0.14;right;['right'];0.23871320000034757;1;0.725;2.8195393000005424;72
384;S09;A;pre;4;59.9724246790481;[0.016986200000246754, 0.016769800000474788, 0.01656879999973171, 0.016661199999361997];4;1;0.049999799999568495;7.tif;mask.tiff;-0.14;right;['right'];0.22986819999823638;1;0.905;2.973088999999163;22
385;S09;A;pre;4;59.9724246790481;[0.016522100000656792, 0.016676100000040606, 0.016687799999999697, 0.017264399999476154];87;4;0.05062829999951646;blank.tiff;mask.tiff;0.14;a;['right'];0.39897910000036063;0;1.511;3.7500763999996707;65
386;S09;A;pre;4;59.9724246790481;[0.013099800000418327, 0.01577710000128718, 0.017365899999276735, 0.01654690000032133];68;4;0.049689900000885245;7.tif;mask.tiff;-0.14;right;['right'];0.36097220000010566;1;0.716;2.913147499999468;70
387;S09;A;pre;4;59.9724246790481;[0.012952799999766285, 0.01655159999972966, 0.017379799999616807, 0.016459000000395463];81;1;0.05039039999974193;blank.tiff;mask.tiff;0.14;a;['right'];0.7441607000000658;0;1.234;3.8308883999998216;17
388;S09;A;pre;4;59.9724246790481;[0.017327899999145302, 0.01586219999990135, 0.017354499999783002, 0.015803400001459522];86;4;0.049020100001143874;blank.tiff;mask.tiff;-0.14;a;['left'];0.5027293000002828;0;0.929;3.270712099998491;64
389;S09;A;pre;4;59.9724246790481;[0.00866180000048189, 0.01590349999969476, 0.01725129999977071, 0.01606800000081421];98;5;0.049222800000279676;blank.tiff;mask.tiff;-0.14;a;['left'];0.3235229000001709;0;0.711;2.8752632000014273;80
390;S09;A;pre;4;59.9724246790481;[0.014544399999067537, 0.015657699999792385, 0.01704989999961981, 0.01593219999995199];90;1;0.048639799999364186;blank.tiff;mask.tiff;-0.14;a;['left'];0.3786733999986609;0;0.694;2.9155539000003046;16
391;S09;A;pre;4;59.9724246790481;[0.016857299999173847, 0.015514400000029127, 0.01710540000021865, 0.016741600000386825];92;2;0.0493614000006346;blank.tiff;mask.tiff;-0.14;a;['right'];0.3684493000000657;0;1.121;3.3437078000006295;32
392;S09;A;pre;4;59.9724246790481;[0.01598559999911231, 0.01692910000019765, 0.015904100000625476, 0.016729900000427733];38;5;0.04956310000125086;8.tif;mask.tiff;-0.14;right;['right'];0.3886720000009518;1;0.721;2.9558019999985845;88
393;S09;A;pre;4;59.9724246790481;[0.016023500000301283, 0.017671199999313103, 0.01588179999998829, 0.016226499999902444];17;3;0.049779499999203836;2.tif;mask.tiff;0.14;left;['right'];0.5677823999994871;0;0.713;3.135385199999291;51
394;S09;A;pre;4;59.9724246790481;[0.016591899999184534, 0.017024900000251364, 0.01635290000012901, 0.01638730000013311];25;4;0.049765100000513485;2.tif;mask.tiff;0.14;left;['left'];0.25760579999951005;1;0.778;2.8753207000008842;67
395;S09;A;pre;4;59.9724246790481;[0.016282200000205194, 0.016110599999592523, 0.016996100001051673, 0.015991999998732354];97;4;0.04909869999937655;blank.tiff;mask.tiff;0.14;a;['right'];0.7429537000007258;0;0.843;3.42554729999938;65
396;S09;A;pre;4;59.9724246790481;[0.014128000000710017, 0.016765500000474276, 0.01674009999987902, 0.015873000000283355];3;1;0.04937860000063665;3.tif;mask.tiff;0.14;left;['left'];0.19102460000067367;1;1.235;3.276559999998426;21
397;S09;A;pre;4;59.9724246790481;[0.016756400000303984, 0.016606700000920682, 0.016532899999219808, 0.016384099999413593];61;3;0.04952369999955408;7.tif;mask.tiff;0.14;right;['right'];0.27339349999965634;1;0.69;2.8090499000009004;55
398;S09;A;pre;4;59.9724246790481;[0.015587899999445654, 0.017600700000912184, 0.015562999999019667, 0.016963699999905657];75;5;0.05012739999983751;3.tif;mask.tiff;0.14;left;['right'];0.26624599999922793;0;0.811;2.9244061000008514;85
399;S09;A;pre;4;59.9724246790481;[0.011717999999746098, 0.016981799999484792, 0.016388400001233094, 0.017240499999388703];47;1;0.05061070000010659;8.tif;mask.tiff;0.14;right;['right'];0.188217100001566;1;1.451;3.4879423000002134;25
