;subject;stim;session;block;frame_rate;trial_nb;target;cor_ans;obj_rating;obj_RT;subj_rating;subj_RT
0;S09;A;pre;1;59.90104347623642;82;noise;;['left'];1.0462069999998675;0;3.015
1;S09;A;pre;1;59.90104347623642;45;e;left;['left'];0.7350123000001076;0;1.926
2;S09;A;pre;1;59.90104347623642;3;a;right;['left'];0.8080647000001591;0;2.356
3;S09;A;pre;1;59.90104347623642;91;noise;;['left'];0.7295361999999841;0;1.984
4;S09;A;pre;1;59.90104347623642;70;e;left;['right'];2.2188421000000744;1;5.751
5;S09;A;pre;1;59.90104347623642;25;a;right;['left'];1.1961731999999756;0;4.129
6;S09;A;pre;1;59.90104347623642;22;a;right;['right'];0.7505857999999535;1;1.53
7;S09;A;pre;1;59.90104347623642;65;e;left;['left'];0.9745139999999992;0;1.434
8;S09;A;pre;1;59.90104347623642;15;a;right;['left'];1.6130684999998266;0;2.218
9;S09;A;pre;1;59.90104347623642;88;noise;;['right'];0.773884299999736;0;1.733
10;S09;A;pre;1;59.90104347623642;62;e;left;['left'];0.7158343000000968;0;1.448
11;S09;A;pre;1;59.90104347623642;44;e;left;['left'];0.9556109000000106;0;1.939
12;S09;A;pre;1;59.90104347623642;92;noise;;['right'];0.6452154999997219;0;1.124
13;S09;A;pre;1;59.90104347623642;40;e;left;['right'];0.5499251999999615;0;1.495
14;S09;A;pre;1;59.90104347623642;11;a;right;['right'];0.6867048999997678;0;1.218
15;S09;A;pre;1;59.90104347623642;17;a;right;['left'];0.8817780999997922;0;3.027
16;S09;A;pre;1;59.90104347623642;23;a;right;['left'];0.5551091000002089;0;1.447
17;S09;A;pre;1;59.90104347623642;74;e;left;['right'];0.5949883999996928;0;2.875
18;S09;A;pre;1;59.90104347623642;6;a;right;['left'];0.589232599999832;0;1.549
19;S09;A;pre;1;59.90104347623642;59;e;left;['left'];1.2953550000001997;1;3.316
20;S09;A;pre;1;59.90104347623642;31;a;right;['right'];0.9589607000002616;1;0.833
21;S09;A;pre;1;59.90104347623642;32;a;right;['left'];0.6783424000000196;1;0.892
22;S09;A;pre;1;59.90104347623642;43;e;left;['right'];0.7539621999999326;1;0.808
23;S09;A;pre;1;59.90104347623642;63;e;left;['left'];0.49661879999985103;1;0.825
24;S09;A;pre;1;59.90104347623642;76;e;left;['left'];0.7611016999999265;1;0.874
25;S09;A;pre;1;59.90104347623642;69;e;left;['right'];0.5376440999998522;1;0.821
26;S09;A;pre;1;59.90104347623642;71;e;left;['left'];0.9229981999997108;1;0.776
27;S09;A;pre;1;59.90104347623642;27;a;right;['right'];0.6125378000001547;1;0.874
28;S09;A;pre;1;59.90104347623642;24;a;right;['right'];0.4693097999997917;1;1.124
29;S09;A;pre;1;59.90104347623642;47;e;left;['right'];1.513137700000243;1;1.462
30;S09;A;pre;1;59.90104347623642;87;noise;;['left'];1.028620100000353;1;2.706
31;S09;A;pre;1;59.90104347623642;75;e;left;['right'];0.8021365999998125;1;1.42
32;S09;A;pre;1;59.90104347623642;51;e;left;['right'];0.5876688999996986;1;0.809
33;S09;A;pre;1;59.90104347623642;77;e;left;['right'];0.4586957999999868;1;1.195
34;S09;A;pre;1;59.90104347623642;80;noise;;['left'];0.49471289999974033;0;1.005
35;S09;A;pre;1;59.90104347623642;20;a;right;['left'];0.5954321999997774;1;1.008
36;S09;A;pre;1;59.90104347623642;35;a;right;['left'];0.5642457999997532;1;0.93
37;S09;A;pre;1;59.90104347623642;10;a;right;['right'];0.5530358999999407;1;1.082
38;S09;A;pre;1;59.90104347623642;16;a;right;['right'];0.4104357000001073;1;0.986
39;S09;A;pre;1;59.90104347623642;72;e;left;['right'];0.5246867000000748;1;0.847
40;S09;A;pre;1;59.90104347623642;50;e;left;['left'];0.7096487000003435;1;0.871
41;S09;A;pre;1;59.90104347623642;19;a;right;['right'];0.3892206000000442;1;0.876
42;S09;A;pre;1;59.90104347623642;56;e;left;['left'];0.7845370000000003;1;0.908
43;S09;A;pre;1;59.90104347623642;52;e;left;['left'];0.5380870000003597;1;0.803
44;S09;A;pre;1;59.90104347623642;93;noise;;['right'];0.7781865999995716;1;0.819
45;S09;A;pre;1;59.90104347623642;96;noise;;['left'];0.47288079999998445;1;1.026
46;S09;A;pre;1;59.90104347623642;30;a;right;['right'];0.6611501000002136;1;0.821
47;S09;A;pre;1;59.90104347623642;58;e;left;['left'];0.6145089000001462;1;1.054
48;S09;A;pre;1;59.90104347623642;84;noise;;['right'];0.8068516000003001;1;0.97
49;S09;A;pre;1;59.90104347623642;94;noise;;['left'];0.7325393000000986;1;0.812
50;S09;A;pre;1;59.90104347623642;97;noise;;['right'];0.6261176999996678;1;0.892
51;S09;A;pre;1;59.90104347623642;86;noise;;['right'];0.460008900000048;1;1.081
52;S09;A;pre;1;59.90104347623642;8;a;right;['left'];0.5991410999999971;1;0.71
53;S09;A;pre;1;59.90104347623642;85;noise;;['right'];0.51780669999971;1;0.778
54;S09;A;pre;1;59.90104347623642;12;a;right;['right'];0.766265199999907;1;0.845
55;S09;A;pre;1;59.90104347623642;57;e;left;['left'];0.606329100000039;1;0.826
56;S09;A;pre;1;59.90104347623642;13;a;right;['right'];0.4893608000002132;1;0.87
57;S09;A;pre;1;59.90104347623642;55;e;left;['left'];0.5819704999998976;1;0.753
58;S09;A;pre;1;59.90104347623642;7;a;right;['right'];0.663783500000136;1;0.848
59;S09;A;pre;1;59.90104347623642;9;a;right;['right'];1.1342502000002241;1;0.962
60;S09;A;pre;1;59.90104347623642;26;a;right;['right'];0.5541715999997905;1;1.139
61;S09;A;pre;1;59.90104347623642;60;e;left;['left'];1.4705956000002516;1;1.05
62;S09;A;pre;1;59.90104347623642;61;e;left;['right'];0.73217939999995;1;0.957
63;S09;A;pre;1;59.90104347623642;29;a;right;['left'];0.5596851000000242;1;3.543
64;S09;A;pre;1;59.90104347623642;38;a;right;['right'];0.5636807999999291;1;0.956
65;S09;A;pre;1;59.90104347623642;54;e;left;['left'];0.5274120999997649;1;3.501
66;S09;A;pre;1;59.90104347623642;18;a;right;['left'];0.5699717000002238;1;1.018
67;S09;A;pre;1;59.90104347623642;73;e;left;['left'];0.6056404000000839;1;1.269
68;S09;A;pre;1;59.90104347623642;2;a;right;['right'];0.6128551000001607;1;0.844
69;S09;A;pre;1;59.90104347623642;41;e;left;['left'];0.6384490000000369;1;0.94
70;S09;A;pre;1;59.90104347623642;67;e;left;['right'];0.479135099999894;1;0.886
71;S09;A;pre;1;59.90104347623642;78;e;left;['right'];0.5910662999999658;1;1.496
72;S09;A;pre;1;59.90104347623642;39;a;right;['right'];0.4836906000000454;1;0.897
73;S09;A;pre;1;59.90104347623642;64;e;left;['right'];0.5479476000000432;1;1.099
74;S09;A;pre;1;59.90104347623642;66;e;left;['left'];0.4089880000001358;1;1.119
75;S09;A;pre;1;59.90104347623642;89;noise;;['right'];1.099958699999661;1;1.29
76;S09;A;pre;1;59.90104347623642;5;a;right;['right'];0.5258308000002216;1;0.893
77;S09;A;pre;1;59.90104347623642;34;a;right;['right'];0.7258633000001282;1;1.007
78;S09;A;pre;1;59.90104347623642;42;e;left;['left'];0.5234974000004513;1;0.932
79;S09;A;pre;1;59.90104347623642;79;e;left;['right'];0.4744150000005902;1;0.84
80;S09;A;pre;1;59.90104347623642;33;a;right;['right'];0.7291122999995423;1;0.975
81;S09;A;pre;1;59.90104347623642;68;e;left;['left'];0.5307478999993691;1;0.815
82;S09;A;pre;1;59.90104347623642;90;noise;;['right'];0.44768870000007155;1;0.931
83;S09;A;pre;1;59.90104347623642;48;e;left;['left'];0.6053280999994968;1;1.166
84;S09;A;pre;1;59.90104347623642;28;a;right;['right'];0.8074759000000995;1;1.686
85;S09;A;pre;1;59.90104347623642;95;noise;;['right'];0.6389192000006005;1;1.229
86;S09;A;pre;1;59.90104347623642;81;noise;;['right'];0.6638066000004983;1;0.886
87;S09;A;pre;1;59.90104347623642;46;e;left;['right'];0.6374925000000076;1;1.438
88;S09;A;pre;1;59.90104347623642;49;e;left;['right'];0.8345298000003822;1;0.795
89;S09;A;pre;1;59.90104347623642;1;a;right;['right'];0.47110909999992145;1;0.814
90;S09;A;pre;1;59.90104347623642;83;noise;;['right'];0.39003260000026785;1;0.772
91;S09;A;pre;1;59.90104347623642;99;noise;;['right'];0.5920836000004783;1;0.928
92;S09;A;pre;1;59.90104347623642;14;a;right;['right'];0.5753045999999813;1;0.824
93;S09;A;pre;1;59.90104347623642;53;e;left;['left'];0.6831733999997596;1;0.714
94;S09;A;pre;1;59.90104347623642;98;noise;;['right'];0.567966499999784;1;0.951
95;S09;A;pre;1;59.90104347623642;0;a;right;['right'];0.3854887999996208;1;1.179
96;S09;A;pre;1;59.90104347623642;4;a;right;['right'];0.5453967000003104;1;0.841
97;S09;A;pre;1;59.90104347623642;37;a;right;['right'];0.37410060000001977;1;1.12
98;S09;A;pre;1;59.90104347623642;21;a;right;['right'];0.4001412999996319;1;0.773
99;S09;A;pre;1;59.90104347623642;36;a;right;['right'];0.8411722999999256;1;2.586
100;S09;A;pre;2;59.90104347623642;90;noise;;['right'];0.6280557000000044;1;1.067
101;S09;A;pre;2;59.90104347623642;51;e;left;['left'];1.6091518000002907;1;1.253
102;S09;A;pre;2;59.90104347623642;45;e;left;['right'];1.749439500000335;1;0.916
103;S09;A;pre;2;59.90104347623642;19;a;right;['right'];0.7735545000005004;1;1.004
104;S09;A;pre;2;59.90104347623642;86;noise;;['right'];0.446503300000586;1;1.578
105;S09;A;pre;2;59.90104347623642;82;noise;;['right'];0.7490623000003325;1;0.964
106;S09;A;pre;2;59.90104347623642;95;noise;;['right'];0.679687599999852;1;0.99
107;S09;A;pre;2;59.90104347623642;44;e;left;['left'];1.0557810000000245;1;1.085
108;S09;A;pre;2;59.90104347623642;57;e;left;['left'];0.6046896999996534;1;0.819
109;S09;A;pre;2;59.90104347623642;53;e;left;['right'];0.5375486000002638;1;0.803
110;S09;A;pre;2;59.90104347623642;63;e;left;['right'];0.6924542000006113;1;1.348
111;S09;A;pre;2;59.90104347623642;93;noise;;['right'];0.7517397000001438;1;0.868
112;S09;A;pre;2;59.90104347623642;28;a;right;['right'];0.942028799999207;1;0.88
113;S09;A;pre;2;59.90104347623642;1;a;right;['left'];0.48289479999948526;1;1.153
114;S09;A;pre;2;59.90104347623642;55;e;left;['left'];0.5596940000004906;1;0.77
115;S09;A;pre;2;59.90104347623642;24;a;right;['right'];0.6338563999997859;1;0.94
116;S09;A;pre;2;59.90104347623642;30;a;right;['right'];1.6912907000005362;1;0.947
117;S09;A;pre;2;59.90104347623642;2;a;right;['right'];0.9409998000000996;1;1.156
118;S09;A;pre;2;59.90104347623642;11;a;right;['right'];0.7422480000004725;1;1.016
119;S09;A;pre;2;59.90104347623642;10;a;right;['right'];0.6439336000003095;1;1.169
120;S09;A;pre;2;59.90104347623642;52;e;left;['right'];0.6575547000002189;1;1.242
121;S09;A;pre;2;59.90104347623642;15;a;right;['right'];0.5291639000006398;1;0.895
122;S09;A;pre;2;59.90104347623642;59;e;left;['left'];1.3065709000002244;1;1.289
123;S09;A;pre;2;59.90104347623642;37;a;right;['right'];0.5907739000003858;1;0.918
124;S09;A;pre;2;59.90104347623642;88;noise;;['right'];0.39090830000077403;1;1.012
125;S09;A;pre;2;59.90104347623642;70;e;left;['left'];0.7505645000001095;1;1.407
126;S09;A;pre;2;59.90104347623642;18;a;right;['right'];0.5058263000000807;1;0.785
127;S09;A;pre;2;59.90104347623642;39;a;right;['right'];0.8177412000004551;1;1.289
128;S09;A;pre;2;59.90104347623642;38;a;right;['right'];0.4688741999998456;1;1.132
129;S09;A;pre;2;59.90104347623642;20;a;right;['right'];0.4422742999995535;1;0.952
130;S09;A;pre;2;59.90104347623642;27;a;right;['right'];0.4076156999999512;1;0.807
131;S09;A;pre;2;59.90104347623642;92;noise;;['right'];0.7591872000002695;1;0.828
132;S09;A;pre;2;59.90104347623642;68;e;left;['right'];0.6060201000000234;1;2.266
133;S09;A;pre;2;59.90104347623642;79;e;left;['left'];0.4722684999997;1;0.887
134;S09;A;pre;2;59.90104347623642;58;e;left;['right'];0.7662645000000339;1;0.746
135;S09;A;pre;2;59.90104347623642;67;e;left;['left'];0.31411409999964235;1;0.743
136;S09;A;pre;2;59.90104347623642;26;a;right;['right'];2.9844912999997177;1;0.708
137;S09;A;pre;2;59.90104347623642;9;a;right;['right'];0.8497895000000426;1;1.162
138;S09;A;pre;2;59.90104347623642;85;noise;;['left'];0.43131090000042605;1;0.799
139;S09;A;pre;2;59.90104347623642;97;noise;;['right'];0.3311580999998114;1;0.848
140;S09;A;pre;2;59.90104347623642;80;noise;;['right'];0.2525620999995226;1;0.806
141;S09;A;pre;2;59.90104347623642;60;e;left;['left'];0.31425099999978556;1;0.964
142;S09;A;pre;2;59.90104347623642;7;a;right;['right'];0.37257839999983844;1;1.225
143;S09;A;pre;2;59.90104347623642;69;e;left;['right'];0.4543079000004582;1;0.995
144;S09;A;pre;2;59.90104347623642;43;e;left;['right'];1.3386884000001373;1;0.792
145;S09;A;pre;2;59.90104347623642;64;e;left;['left'];0.6276377000003777;1;1.052
146;S09;A;pre;2;59.90104347623642;6;a;right;['right'];0.42058910000014293;1;0.929
147;S09;A;pre;2;59.90104347623642;84;noise;;['right'];0.2996915000003355;1;0.838
148;S09;A;pre;2;59.90104347623642;32;a;right;['left'];0.8029141999995772;1;0.909
149;S09;A;pre;2;59.90104347623642;65;e;left;['right'];0.7954485000000204;1;0.715
150;S09;A;pre;2;59.90104347623642;61;e;left;['left'];0.5156841999996686;1;1.018
151;S09;A;pre;2;59.90104347623642;22;a;right;['right'];0.4640239999998812;1;0.763
152;S09;A;pre;2;59.90104347623642;46;e;left;['right'];0.5939318999999159;1;1.045
153;S09;A;pre;2;59.90104347623642;17;a;right;['right'];0.8778873999999632;1;1.121
154;S09;A;pre;2;59.90104347623642;34;a;right;['right'];0.6090298999997685;1;0.779
155;S09;A;pre;2;59.90104347623642;74;e;left;['left'];0.4384061999999176;1;0.864
156;S09;A;pre;2;59.90104347623642;62;e;left;['right'];1.7580876000001808;1;0.752
157;S09;A;pre;2;59.90104347623642;29;a;right;['right'];0.7032963999999993;1;1.027
158;S09;A;pre;2;59.90104347623642;48;e;left;['left'];0.35520720000022266;1;0.974
159;S09;A;pre;2;59.90104347623642;76;e;left;['right'];0.5784293999995498;1;0.871
160;S09;A;pre;2;59.90104347623642;31;a;right;['right'];0.5628919000000678;1;0.816
161;S09;A;pre;2;59.90104347623642;13;a;right;['right'];0.8112980999994761;1;1.395
162;S09;A;pre;2;59.90104347623642;21;a;right;['right'];0.5107665999994424;1;0.92
163;S09;A;pre;2;59.90104347623642;71;e;left;['right'];0.6779932999997982;1;1.122
164;S09;A;pre;2;59.90104347623642;16;a;right;['right'];1.2589747000001807;1;0.793
165;S09;A;pre;2;59.90104347623642;25;a;right;['left'];0.5645142000003034;0;1.915
166;S09;A;pre;2;59.90104347623642;99;noise;;['right'];0.9364850000001752;1;0.697
167;S09;A;pre;2;59.90104347623642;40;e;left;['right'];0.5343828000004578;1;0.92
168;S09;A;pre;2;59.90104347623642;5;a;right;['right'];0.41026030000011815;1;0.745
169;S09;A;pre;2;59.90104347623642;47;e;left;['right'];0.6508326000002853;1;0.792
170;S09;A;pre;2;59.90104347623642;54;e;left;['left'];0.33892569999989064;1;0.728
171;S09;A;pre;2;59.90104347623642;41;e;left;['right'];1.7810048000001188;1;6.228
172;S09;A;pre;2;59.90104347623642;8;a;right;['right'];0.7521765999999843;1;1.128
173;S09;A;pre;2;59.90104347623642;3;a;right;['right'];1.4501657000000705;1;1.235
174;S09;A;pre;2;59.90104347623642;96;noise;;['right'];0.7116245999995954;1;0.943
175;S09;A;pre;2;59.90104347623642;89;noise;;['right'];0.5261420999995607;1;0.927
176;S09;A;pre;2;59.90104347623642;77;e;left;['right'];0.5395606000001862;1;0.927
177;S09;A;pre;2;59.90104347623642;35;a;right;['right'];0.48306789999969624;1;0.918
178;S09;A;pre;2;59.90104347623642;78;e;left;['right'];0.7482153999999355;1;0.863
179;S09;A;pre;2;59.90104347623642;75;e;left;['left'];0.45628149999993184;1;0.755
180;S09;A;pre;2;59.90104347623642;49;e;left;['right'];0.6559444000004078;1;1.291
181;S09;A;pre;2;59.90104347623642;12;a;right;['left'];0.5067240999997011;0;0.746
182;S09;A;pre;2;59.90104347623642;66;e;left;['right'];0.5347117999999682;1;0.738
183;S09;A;pre;2;59.90104347623642;83;noise;;['left'];0.9443656000003102;1;1.246
184;S09;A;pre;2;59.90104347623642;91;noise;;['left'];0.432839299999614;1;1.017
185;S09;A;pre;2;59.90104347623642;23;a;right;['right'];0.38175090000004275;1;1.262
186;S09;A;pre;2;59.90104347623642;73;e;left;['right'];0.4310054999996282;1;0.773
187;S09;A;pre;2;59.90104347623642;42;e;left;['right'];0.4029206000004706;1;1.054
188;S09;A;pre;2;59.90104347623642;56;e;left;['left'];0.6628369000000021;1;0.666
189;S09;A;pre;2;59.90104347623642;36;a;right;['right'];0.39959039999939705;1;0.908
190;S09;A;pre;2;59.90104347623642;14;a;right;['right'];0.6117899999999281;1;0.71
191;S09;A;pre;2;59.90104347623642;72;e;left;['left'];0.6973606999999902;1;0.847
192;S09;A;pre;2;59.90104347623642;81;noise;;['right'];0.5987829999994574;1;1.926
193;S09;A;pre;2;59.90104347623642;87;noise;;['left'];0.5968911999998454;1;0.82
194;S09;A;pre;2;59.90104347623642;94;noise;;['right'];0.8322072999999364;1;1.096
195;S09;A;pre;2;59.90104347623642;0;a;right;['right'];1.140878100000009;1;3.647
196;S09;A;pre;2;59.90104347623642;33;a;right;['left'];0.5100664000001416;1;0.854
197;S09;A;pre;2;59.90104347623642;98;noise;;['right'];0.4558748999997988;1;0.861
198;S09;A;pre;2;59.90104347623642;4;a;right;['left'];0.5541643999995358;1;1.238
199;S09;A;pre;2;59.90104347623642;50;e;left;['right'];0.4261163999999553;1;1.044
200;S09;A;pre;3;59.90104347623642;83;noise;;['right'];0.972509700000046;1;1.728
201;S09;A;pre;3;59.90104347623642;23;a;right;['right'];1.1261569999996937;0;0.991
202;S09;A;pre;3;59.90104347623642;90;noise;;['right'];0.2570341999999073;1;0.747
203;S09;A;pre;3;59.90104347623642;14;a;right;['right'];0.5954553999999916;1;0.896
204;S09;A;pre;3;59.90104347623642;76;e;left;['left'];0.3711763000001156;1;1.189
205;S09;A;pre;3;59.90104347623642;84;noise;;['right'];0.306384600000456;1;0.841
206;S09;A;pre;3;59.90104347623642;64;e;left;['right'];0.3638145999993867;1;0.837
207;S09;A;pre;3;59.90104347623642;59;e;left;['left'];0.20840649999991;1;1.087
208;S09;A;pre;3;59.90104347623642;51;e;left;['right'];0.4235281000001123;1;0.862
209;S09;A;pre;3;59.90104347623642;65;e;left;['right'];0.5697962999993251;1;0.878
210;S09;A;pre;3;59.90104347623642;67;e;left;['right'];2.605240599999888;1;1.118
211;S09;A;pre;3;59.90104347623642;99;noise;;['right'];0.2953922999995484;1;0.724
212;S09;A;pre;3;59.90104347623642;33;a;right;['right'];0.84602249999989;0;1.151
213;S09;A;pre;3;59.90104347623642;1;a;right;['left'];0.37545630000022356;1;0.905
214;S09;A;pre;3;59.90104347623642;12;a;right;['right'];0.5243561999996018;1;0.908
215;S09;A;pre;3;59.90104347623642;53;e;left;['right'];0.5940817999999126;1;1.318
216;S09;A;pre;3;59.90104347623642;54;e;left;['right'];0.5017305000001215;1;0.976
217;S09;A;pre;3;59.90104347623642;81;noise;;['left'];0.794673899999907;1;0.944
218;S09;A;pre;3;59.90104347623642;55;e;left;['right'];1.3579574999994293;1;1.932
219;S09;A;pre;3;59.90104347623642;96;noise;;['left'];0.883210599999984;0;1.066
220;S09;A;pre;3;59.90104347623642;57;e;left;['right'];0.49964559999989433;1;1.105
221;S09;A;pre;3;59.90104347623642;39;a;right;['right'];0.782068800000161;0;1.483
222;S09;A;pre;3;59.90104347623642;31;a;right;['left'];0.4824486999996225;1;1.089
223;S09;A;pre;3;59.90104347623642;73;e;left;['left'];0.2601693999995405;1;1.023
224;S09;A;pre;3;59.90104347623642;88;noise;;['right'];0.3598846000004414;0;0.85
225;S09;A;pre;3;59.90104347623642;79;e;left;['left'];0.5403228000004674;1;1.099
226;S09;A;pre;3;59.90104347623642;9;a;right;['right'];0.13118600000052538;1;0.928
227;S09;A;pre;3;59.90104347623642;19;a;right;['left'];0.24571740000010323;1;1.164
228;S09;A;pre;3;59.90104347623642;29;a;right;['right'];0.7475266999999803;1;1.059
229;S09;A;pre;3;59.90104347623642;85;noise;;['right'];0.30755820000013046;1;0.801
230;S09;A;pre;3;59.90104347623642;20;a;right;['right'];0.7927159999999276;1;0.963
231;S09;A;pre;3;59.90104347623642;93;noise;;['right'];0.3005467000002682;1;1.913
232;S09;A;pre;3;59.90104347623642;2;a;right;['left'];1.5102335999999923;1;1.418
233;S09;A;pre;3;59.90104347623642;74;e;left;['right'];0.49067809999996825;1;0.991
234;S09;A;pre;3;59.90104347623642;63;e;left;['right'];0.4289133000002039;1;0.852
235;S09;A;pre;3;59.90104347623642;89;noise;;['right'];0.35476810000000114;1;0.84
236;S09;A;pre;3;59.90104347623642;49;e;left;['left'];0.28628330000083224;1;0.795
237;S09;A;pre;3;59.90104347623642;60;e;left;['left'];0.9183927000003678;1;2.248
238;S09;A;pre;3;59.90104347623642;69;e;left;['left'];0.33405450000009296;1;0.884
239;S09;A;pre;3;59.90104347623642;15;a;right;['right'];0.5125661000001855;1;0.83
240;S09;A;pre;3;59.90104347623642;7;a;right;['left'];0.40808040000047185;1;0.885
241;S09;A;pre;3;59.90104347623642;58;e;left;['right'];0.5066281999997955;1;1.098
242;S09;A;pre;3;59.90104347623642;26;a;right;['right'];0.5183453999998164;1;0.793
243;S09;A;pre;3;59.90104347623642;75;e;left;['left'];0.8400459999993473;1;0.872
244;S09;A;pre;3;59.90104347623642;62;e;left;['left'];0.8095017999994525;1;1.947
245;S09;A;pre;3;59.90104347623642;3;a;right;['right'];0.3514668999996502;1;1.82
246;S09;A;pre;3;59.90104347623642;77;e;left;['left'];0.935691499999848;1;1.403
247;S09;A;pre;3;59.90104347623642;8;a;right;['left'];0.4850950999998531;1;0.765
248;S09;A;pre;3;59.90104347623642;44;e;left;['right'];0.46168069999930594;1;0.861
249;S09;A;pre;3;59.90104347623642;95;noise;;['right'];0.3530726999997569;1;1.45
250;S09;A;pre;3;59.90104347623642;24;a;right;['right'];0.4264321000000564;1;1.238
251;S09;A;pre;3;59.90104347623642;98;noise;;['right'];0.5965728000001036;1;1.088
252;S09;A;pre;3;59.90104347623642;50;e;left;['left'];0.29672560000017256;1;0.901
253;S09;A;pre;3;59.90104347623642;72;e;left;['right'];0.4459773000007772;1;0.939
254;S09;A;pre;3;59.90104347623642;13;a;right;['left'];1.131228899999769;1;1.227
255;S09;A;pre;3;59.90104347623642;10;a;right;['right'];0.966724200000499;1;1.355
256;S09;A;pre;3;59.90104347623642;30;a;right;['right'];0.6454078999995545;1;0.897
257;S09;A;pre;3;59.90104347623642;34;a;right;['right'];0.6518812000003891;1;0.98
258;S09;A;pre;3;59.90104347623642;16;a;right;['left'];0.334564999999202;1;0.899
259;S09;A;pre;3;59.90104347623642;36;a;right;['right'];0.6011223000004975;1;1.142
260;S09;A;pre;3;59.90104347623642;25;a;right;['right'];1.0824149000000034;1;0.981
261;S09;A;pre;3;59.90104347623642;45;e;left;['left'];0.575027200000477;1;0.774
262;S09;A;pre;3;59.90104347623642;43;e;left;['right'];0.5832768999998734;1;0.83
263;S09;A;pre;3;59.90104347623642;22;a;right;['right'];0.6255406000000221;1;0.774
264;S09;A;pre;3;59.90104347623642;52;e;left;['right'];0.39489919999959966;1;0.936
265;S09;A;pre;3;59.90104347623642;82;noise;;['right'];1.997269899999992;0;0.931
266;S09;A;pre;3;59.90104347623642;40;e;left;['right'];0.6338909000005515;1;0.858
267;S09;A;pre;3;59.90104347623642;48;e;left;['right'];0.31953189999967435;0;1.197
268;S09;A;pre;3;59.90104347623642;80;noise;;['right'];0.39219409999986965;1;0.863
269;S09;A;pre;3;59.90104347623642;21;a;right;['right'];0.5838868999999249;1;1.195
270;S09;A;pre;3;59.90104347623642;56;e;left;['right'];0.24845579999964684;1;0.832
271;S09;A;pre;3;59.90104347623642;91;noise;;['right'];0.6728972000000795;1;0.906
272;S09;A;pre;3;59.90104347623642;5;a;right;['right'];0.49839479999991454;1;1.072
273;S09;A;pre;3;59.90104347623642;87;noise;;['right'];0.42169530000046507;1;0.823
274;S09;A;pre;3;59.90104347623642;28;a;right;['right'];0.49711050000041723;1;0.868
275;S09;A;pre;3;59.90104347623642;35;a;right;['right'];0.7225295999996888;1;0.849
276;S09;A;pre;3;59.90104347623642;71;e;left;['right'];0.6711531000000832;1;1.331
277;S09;A;pre;3;59.90104347623642;92;noise;;['right'];0.7235205999995742;1;0.844
278;S09;A;pre;3;59.90104347623642;70;e;left;['right'];0.4971631999997044;1;0.928
279;S09;A;pre;3;59.90104347623642;47;e;left;['left'];0.44093489999977464;1;1.115
280;S09;A;pre;3;59.90104347623642;86;noise;;['right'];0.5776170999997703;1;0.959
281;S09;A;pre;3;59.90104347623642;61;e;left;['right'];0.5553793999997652;1;1.184
282;S09;A;pre;3;59.90104347623642;68;e;left;['left'];0.45749979999982315;1;0.854
283;S09;A;pre;3;59.90104347623642;42;e;left;['right'];0.45124659999964933;1;0.86
284;S09;A;pre;3;59.90104347623642;18;a;right;['right'];0.4723168999998961;1;0.803
285;S09;A;pre;3;59.90104347623642;27;a;right;['left'];0.7124459999995452;1;1.153
286;S09;A;pre;3;59.90104347623642;4;a;right;['right'];0.5228022999999666;1;1.048
287;S09;A;pre;3;59.90104347623642;78;e;left;['right'];0.6085772999995243;1;1.102
288;S09;A;pre;3;59.90104347623642;0;a;right;['right'];0.551052300000265;1;1.02
289;S09;A;pre;3;59.90104347623642;38;a;right;['right'];0.5490659999995842;1;0.866
290;S09;A;pre;3;59.90104347623642;32;a;right;['right'];0.4359746999998606;1;0.842
291;S09;A;pre;3;59.90104347623642;41;e;left;['left'];0.4963110999997298;1;0.859
292;S09;A;pre;3;59.90104347623642;17;a;right;['right'];0.40678029999980936;1;1.138
293;S09;A;pre;3;59.90104347623642;37;a;right;['left'];0.3749938999999358;1;0.958
294;S09;A;pre;3;59.90104347623642;94;noise;;['right'];0.3424291000001176;1;1.045
295;S09;A;pre;3;59.90104347623642;66;e;left;['right'];0.7243940999996994;1;1.134
296;S09;A;pre;3;59.90104347623642;6;a;right;['right'];0.3313195999999152;1;0.857
297;S09;A;pre;3;59.90104347623642;46;e;left;['left'];0.4118791999999303;1;1.64
298;S09;A;pre;3;59.90104347623642;11;a;right;['right'];0.23555659999965428;1;0.8
299;S09;A;pre;3;59.90104347623642;97;noise;;['right'];0.3453815000002578;1;0.817
300;S09;A;pre;4;59.90104347623642;60;e;left;['right'];0.49036179999984597;1;1.247
301;S09;A;pre;4;59.90104347623642;14;a;right;['right'];1.2495376999995642;0;0.925
302;S09;A;pre;4;59.90104347623642;56;e;left;['right'];0.8578691000002436;0;1.532
303;S09;A;pre;4;59.90104347623642;77;e;left;['left'];0.6609658000006675;1;0.865
304;S09;A;pre;4;59.90104347623642;89;noise;;['right'];0.4516026999999667;1;0.953
305;S09;A;pre;4;59.90104347623642;49;e;left;['left'];0.5931621999998242;1;1.405
306;S09;A;pre;4;59.90104347623642;87;noise;;['right'];0.3678154999997787;1;1.844
307;S09;A;pre;4;59.90104347623642;68;e;left;['left'];0.42126400000051945;1;0.866
308;S09;A;pre;4;59.90104347623642;52;e;left;['right'];0.7640838999996049;1;0.821
309;S09;A;pre;4;59.90104347623642;70;e;left;['right'];0.4644736999998713;1;1.082
310;S09;A;pre;4;59.90104347623642;42;e;left;['right'];0.254220499999974;1;0.849
311;S09;A;pre;4;59.90104347623642;57;e;left;['right'];0.532958900000267;1;1.133
312;S09;A;pre;4;59.90104347623642;64;e;left;['right'];1.061555899999803;1;3.045
313;S09;A;pre;4;59.90104347623642;6;a;right;['right'];0.4113819999993211;1;0.801
314;S09;A;pre;4;59.90104347623642;85;noise;;['right'];0.6071157000005769;1;0.916
315;S09;A;pre;4;59.90104347623642;72;e;left;['left'];0.5294560000002093;1;0.759
316;S09;A;pre;4;59.90104347623642;37;a;right;['right'];0.38497259999985545;1;1.005
317;S09;A;pre;4;59.90104347623642;31;a;right;['left'];0.23395780000009836;1;1.24
318;S09;A;pre;4;59.90104347623642;73;e;left;['right'];0.21787580000000162;1;0.717
319;S09;A;pre;4;59.90104347623642;32;a;right;['left'];0.3834861000004821;1;0.837
320;S09;A;pre;4;59.90104347623642;63;e;left;['left'];0.30245449999983975;1;1.069
321;S09;A;pre;4;59.90104347623642;21;a;right;['right'];0.29233990000011545;1;0.887
322;S09;A;pre;4;59.90104347623642;83;noise;;['right'];1.1355641000000105;1;1.437
323;S09;A;pre;4;59.90104347623642;41;e;left;['right'];0.45009570000001986;1;0.775
324;S09;A;pre;4;59.90104347623642;12;a;right;['right'];0.3305639999998675;1;0.923
325;S09;A;pre;4;59.90104347623642;95;noise;;['left'];1.534860600000684;0;1.173
326;S09;A;pre;4;59.90104347623642;27;a;right;['right'];0.508353199999874;1;0.723
327;S09;A;pre;4;59.90104347623642;45;e;left;['left'];1.570693200000278;1;1.114
328;S09;A;pre;4;59.90104347623642;11;a;right;['right'];0.5065186000001631;1;0.818
329;S09;A;pre;4;59.90104347623642;39;a;right;['right'];0.7522335000003295;1;4.592
330;S09;A;pre;4;59.90104347623642;65;e;left;['left'];0.3929755999997724;1;0.819
331;S09;A;pre;4;59.90104347623642;29;a;right;['right'];0.2854207000000315;1;0.854
332;S09;A;pre;4;59.90104347623642;33;a;right;['right'];0.3983165999998164;1;0.683
333;S09;A;pre;4;59.90104347623642;58;e;left;['left'];0.31278219999967405;1;0.923
334;S09;A;pre;4;59.90104347623642;2;a;right;['left'];0.50806460000058;1;0.82
335;S09;A;pre;4;59.90104347623642;8;a;right;['right'];0.48321579999992537;1;0.714
336;S09;A;pre;4;59.90104347623642;66;e;left;['left'];0.26318129999981466;1;1.145
337;S09;A;pre;4;59.90104347623642;78;e;left;['left'];0.3829040000000532;1;0.788
338;S09;A;pre;4;59.90104347623642;62;e;left;['right'];0.4212020000004486;1;1.015
339;S09;A;pre;4;59.90104347623642;71;e;left;['right'];0.33704039999975066;1;0.856
340;S09;A;pre;4;59.90104347623642;98;noise;;['right'];1.1231818999995085;0;1.023
341;S09;A;pre;4;59.90104347623642;19;a;right;['right'];0.4304119999997056;1;0.961
342;S09;A;pre;4;59.90104347623642;86;noise;;['right'];0.8502404999999271;1;1.072
343;S09;A;pre;4;59.90104347623642;3;a;right;['left'];0.15684009999949922;1;1.277
344;S09;A;pre;4;59.90104347623642;46;e;left;['left'];0.3639014999998835;1;0.865
345;S09;A;pre;4;59.90104347623642;36;a;right;['right'];0.33820160000050237;1;0.861
346;S09;A;pre;4;59.90104347623642;48;e;left;['right'];0.682528999999704;1;1.186
347;S09;A;pre;4;59.90104347623642;90;noise;;['right'];0.611903699999857;1;1.037
348;S09;A;pre;4;59.90104347623642;96;noise;;['right'];0.45312579999972513;1;0.978
349;S09;A;pre;4;59.90104347623642;40;e;left;['left'];0.5856729999995878;1;1.998
350;S09;A;pre;4;59.90104347623642;99;noise;;['right'];0.6256873000002088;1;0.805
351;S09;A;pre;4;59.90104347623642;25;a;right;['left'];0.3796634999998787;1;0.906
352;S09;A;pre;4;59.90104347623642;94;noise;;['left'];0.3352697000000262;1;0.981
353;S09;A;pre;4;59.90104347623642;4;a;right;['left'];0.44807529999980034;1;0.793
354;S09;A;pre;4;59.90104347623642;53;e;left;['right'];1.0194735000004584;1;0.858
355;S09;A;pre;4;59.90104347623642;10;a;right;['right'];0.4321099000007962;1;0.861
356;S09;A;pre;4;59.90104347623642;30;a;right;['right'];1.0013104999998177;1;0.744
357;S09;A;pre;4;59.90104347623642;13;a;right;['right'];0.4486843000004228;1;0.786
358;S09;A;pre;4;59.90104347623642;54;e;left;['right'];0.7476810999996815;1;0.849
359;S09;A;pre;4;59.90104347623642;1;a;right;['right'];0.4489800000001196;1;0.713
360;S09;A;pre;4;59.90104347623642;97;noise;;['right'];0.45885790000011184;1;0.902
361;S09;A;pre;4;59.90104347623642;84;noise;;['right'];0.9401167999994868;0;1.559
362;S09;A;pre;4;59.90104347623642;24;a;right;['right'];0.7428531999994448;1;1.15
363;S09;A;pre;4;59.90104347623642;67;e;left;['right'];1.9514608999998018;1;1.023
364;S09;A;pre;4;59.90104347623642;44;e;left;['left'];0.3562916999999288;1;0.966
365;S09;A;pre;4;59.90104347623642;35;a;right;['right'];0.47354969999923924;1;0.853
366;S09;A;pre;4;59.90104347623642;91;noise;;['right'];0.4244628999995257;1;0.79
367;S09;A;pre;4;59.90104347623642;88;noise;;['right'];0.5562400999997408;1;0.84
368;S09;A;pre;4;59.90104347623642;75;e;left;['left'];0.2188200999999026;1;1.075
369;S09;A;pre;4;59.90104347623642;93;noise;;['right'];0.4249331999999413;1;1.043
370;S09;A;pre;4;59.90104347623642;7;a;right;['left'];0.34600919999957114;1;1.121
371;S09;A;pre;4;59.90104347623642;59;e;left;['right'];0.6804407999998148;1;0.7
372;S09;A;pre;4;59.90104347623642;69;e;left;['left'];0.684494299999642;1;1.199
373;S09;A;pre;4;59.90104347623642;74;e;left;['left'];0.5626530999998067;1;0.801
374;S09;A;pre;4;59.90104347623642;92;noise;;['right'];0.2997734999999011;1;0.734
375;S09;A;pre;4;59.90104347623642;82;noise;;['left'];0.5993177000000287;1;1.019
376;S09;A;pre;4;59.90104347623642;9;a;right;['left'];0.3099731000002066;1;0.795
377;S09;A;pre;4;59.90104347623642;55;e;left;['right'];0.3228039000005083;1;0.786
378;S09;A;pre;4;59.90104347623642;23;a;right;['right'];0.9373169999998936;1;1.075
379;S09;A;pre;4;59.90104347623642;76;e;left;['right'];0.4980498000004445;1;0.86
380;S09;A;pre;4;59.90104347623642;20;a;right;['right'];0.4064453000000867;1;0.807
381;S09;A;pre;4;59.90104347623642;50;e;left;['left'];0.3111259000006612;1;0.928
382;S09;A;pre;4;59.90104347623642;34;a;right;['right'];0.30865409999933036;1;0.759
383;S09;A;pre;4;59.90104347623642;22;a;right;['right'];0.3534153000000515;1;0.982
384;S09;A;pre;4;59.90104347623642;28;a;right;['right'];0.3860415999997713;1;0.814
385;S09;A;pre;4;59.90104347623642;43;e;left;['right'];0.3182814000001599;1;0.885
386;S09;A;pre;4;59.90104347623642;38;a;right;['left'];0.2986977000000479;1;0.767
387;S09;A;pre;4;59.90104347623642;18;a;right;['right'];0.36532510000051843;1;0.838
388;S09;A;pre;4;59.90104347623642;51;e;left;['right'];0.3499786000002132;1;0.789
389;S09;A;pre;4;59.90104347623642;47;e;left;['right'];0.7794363000002704;1;1.104
390;S09;A;pre;4;59.90104347623642;16;a;right;['right'];0.9608944999999949;1;0.999
391;S09;A;pre;4;59.90104347623642;81;noise;;['right'];0.2359902999996848;1;0.986
392;S09;A;pre;4;59.90104347623642;79;e;left;['right'];0.777757500000007;1;1.619
393;S09;A;pre;4;59.90104347623642;5;a;right;['right'];0.2946756000001187;1;0.92
394;S09;A;pre;4;59.90104347623642;15;a;right;['right'];0.38301619999947434;1;0.823
395;S09;A;pre;4;59.90104347623642;17;a;right;['right'];0.8158878999993249;1;0.832
396;S09;A;pre;4;59.90104347623642;26;a;right;['right'];0.39937779999945633;1;0.787
397;S09;A;pre;4;59.90104347623642;80;noise;;['right'];0.5242611000003308;1;1.057
398;S09;A;pre;4;59.90104347623642;0;a;right;['right'];1.2285009999995964;1;1.863
399;S09;A;pre;4;59.90104347623642;61;e;left;['right'];0.2532968000004985;1;0.721
