;subject;stim;session;block;frame_rate;frame_int;trial_nb;SOA;real_SOA;target;mask;position;cor_ans;obj_rating;obj_RT;subj_rating;subj_RT;trial_duration;trigger
0;s03bis;A;pre;1;59.88404052541014;[0.016662999987602234, 0.01678359997458756, 0.017271300079301, 0.016114400001242757];32;5;0.050169300055131316;2.tif;mask.tiff;-0.14;left;['left'];0.3802628999110311;1;1.724;3.951898500090465;82
1;s03bis;A;pre;1;59.88404052541014;[0.017036300036124885, 0.01596579991746694, 0.0169836999848485, 0.016642700065858662];62;3;0.0495921999681741;8.tif;mask.tiff;-0.14;right;['right'];0.5971910000080243;1;0.783;3.2128737999591976;56
2;s03bis;A;pre;1;59.88404052541014;[0.01352559996303171, 0.016758900019340217, 0.01634510001167655, 0.01676290004979819];42;1;0.04986690008081496;3.tif;mask.tiff;-0.14;left;['left'];0.5835393000161275;1;1.115;3.5337322000414133;20
3;s03bis;A;pre;1;59.88404052541014;[0.01897209999151528, 0.0158118000254035, 0.017033199896104634, 0.016352200065739453];2;1;0.049197199987247586;3.tif;mask.tiff;-0.14;left;['left'];0.35447899997234344;1;0.724;2.936525100027211;20
4;s03bis;A;pre;1;59.88404052541014;[0.01643109996803105, 0.017415300011634827, 0.016423699911683798, 0.016099900007247925];36;5;0.04993889993056655;7.tif;mask.tiff;-0.14;right;['right'];0.3378756999736652;1;0.9;3.0717293000780046;86
5;s03bis;A;pre;1;59.88404052541014;[0.01665729994419962, 0.01725170004647225, 0.023128099972382188, 0.00929290009662509];69;4;0.04967270011547953;7.tif;mask.tiff;0.14;right;['right'];0.3388345999410376;1;0.675;2.8549501999514177;71
6;s03bis;A;pre;1;59.88404052541014;[0.016673400066792965, 0.016812799964100122, 0.01782950002234429, 0.015959399985149503];59;3;0.050601699971593916;3.tif;mask.tiff;0.14;left;['left'];0.39170859998557717;1;1.554;3.7912858000490814;53
7;s03bis;A;pre;1;59.88404052541014;[0.01625480002257973, 0.016608200035989285, 0.016597699956037104, 0.0171156000578776];16;3;0.05032150004990399;2.tif;mask.tiff;-0.14;left;['left'];0.22092920006252825;1;0.653;2.7214125000173226;50
8;s03bis;A;pre;1;59.88404052541014;[0.01710489997640252, 0.017150699975900352, 0.01568890002090484, 0.017097300034947693];81;1;0.049936900031752884;blank.tiff;mask.tiff;0.14;a;['right'];1.7224441999569535;0;1.054;4.6227978999959305;17
9;s03bis;A;pre;1;59.88404052541014;[0.014690799987874925, 0.015737400040961802, 0.017521900008432567, 0.01619969995226711];77;5;0.04945900000166148;7.tif;mask.tiff;0.14;right;['right'];0.37946399999782443;1;0.62;2.8466274000238627;87
10;s03bis;A;pre;1;59.88404052541014;[0.015574999968521297, 0.01720010000281036, 0.017141800024546683, 0.01682949997484684];80;1;0.05117140000220388;blank.tiff;mask.tiff;-0.14;a;['right'];0.5376272000139579;0;0.896;3.2722038000356406;16
11;s03bis;A;pre;1;59.88404052541014;[0.01696170005016029, 0.016359500004909933, 0.016533599933609366, 0.016248700092546642];65;4;0.04914180003106594;2.tif;mask.tiff;0.14;left;['left'];0.615960199967958;1;0.738;3.198892100015655;67
12;s03bis;A;pre;1;59.88404052541014;[0.0176919000223279, 0.015531399985775352, 0.016437800019048154, 0.016920299967750907];70;4;0.04888949997257441;8.tif;mask.tiff;-0.14;right;['right'];0.3647285000188276;1;1.061;3.2640809000004083;72
13;s03bis;A;pre;1;59.88404052541014;[0.017932399990968406, 0.017131999949924648, 0.01639380003325641, 0.01789469993673265];88;5;0.05142049991991371;blank.tiff;mask.tiff;-0.14;a;['right'];0.8003938999027014;0;1.131;3.7825872000539675;80
14;s03bis;A;pre;1;59.88404052541014;[0.016481099999509752, 0.017126600025221705, 0.01655069994740188, 0.01670360006392002];33;5;0.05038090003654361;2.tif;mask.tiff;0.14;left;['left'];0.6003933999454603;1;0.821;3.2673351999837905;83
15;s03bis;A;pre;1;59.88404052541014;[0.017372199916280806, 0.015655600000172853, 0.016867500031366944, 0.01674680004362017];74;5;0.04926990007515997;3.tif;mask.tiff;-0.14;left;['left'];0.32704349991399795;1;0.629;2.7937575000105426;84
16;s03bis;A;pre;1;59.88404052541014;[0.016150800045579672, 0.016227600048296154, 0.01717599993571639, 0.01673620007932186];51;2;0.050139800063334405;3.tif;mask.tiff;0.14;left;['right'];1.2289037000155076;0;1.389;4.462053700000979;37
17;s03bis;A;pre;1;59.88404052541014;[0.015429799910634756, 0.016371000092476606, 0.017027699970640242, 0.017043899977579713];68;4;0.05044260004069656;7.tif;mask.tiff;-0.14;right;['right'];0.6542486000107601;1;1.138;3.636943900026381;70
18;s03bis;A;pre;1;59.88404052541014;[0.01701919990591705, 0.016384200076572597, 0.016843099961988628, 0.01640259998384863];14;2;0.049629900022409856;8.tif;mask.tiff;-0.14;right;['right'];0.6439549999777228;1;1.405;3.894074899959378;40
19;s03bis;A;pre;1;59.88404052541014;[0.01779109996277839, 0.016246500075794756, 0.01644269993994385, 0.016255200025625527];37;5;0.04894440004136413;7.tif;mask.tiff;0.14;right;['right'];0.8358339999103919;1;0.794;3.468307999894023;87
20;s03bis;A;pre;1;59.88404052541014;[0.018072100006975234, 0.01569160004146397, 0.016493599978275597, 0.017187300021760166];97;4;0.049372500041499734;blank.tiff;mask.tiff;0.14;a;['right'];0.7132448999909684;0;2.423;4.978634900064208;65
21;s03bis;A;pre;1;59.88404052541014;[0.017159100039862096, 0.01654919993598014, 0.016277500079013407, 0.01705439994111657];22;3;0.04988109995611012;8.tif;mask.tiff;-0.14;right;['right'];0.5781016999389976;1;1.321;3.7443489999277517;56
22;s03bis;A;pre;1;59.88404052541014;[0.016526999999769032, 0.016499500023201108, 0.017002300010062754, 0.01735239999834448];15;2;0.05085420003160834;8.tif;mask.tiff;0.14;right;['right'];1.4030097000068054;1;1.385;4.636133500025608;41
23;s03bis;A;pre;1;59.88404052541014;[0.016040400019846857, 0.016304900054819882, 0.017194799962453544, 0.016292099957354367];78;5;0.04979179997462779;8.tif;mask.tiff;-0.14;right;['right'];1.5288757999660447;1;0.681;4.045745200011879;88
24;s03bis;A;pre;1;59.88404052541014;[0.01625950005836785, 0.016169299953617156, 0.017587400041520596, 0.016132599906995893];66;4;0.049889299902133644;3.tif;mask.tiff;-0.14;left;['left'];0.2895475000841543;1;0.655;2.7897509000031278;68
25;s03bis;A;pre;1;59.88404052541014;[0.01654039998538792, 0.01729190000332892, 0.0159482000162825, 0.017463400028645992];45;1;0.05070350004825741;7.tif;mask.tiff;0.14;right;['right'];0.8465239000506699;1;0.817;3.495737100020051;23
26;s03bis;A;pre;1;59.88404052541014;[0.017150599975138903, 0.015984500059857965, 0.01646650000475347, 0.016904299962334335];29;4;0.04935530002694577;7.tif;mask.tiff;0.14;right;['right'];2.057306000031531;1;0.948;4.841106699896045;71
27;s03bis;A;pre;1;59.88404052541014;[0.0135969000402838, 0.018092799931764603, 0.015184300020337105, 0.016443500062450767];98;5;0.049720600014552474;blank.tiff;mask.tiff;-0.14;a;['right'];0.21183709998149425;0;0.692;2.760480400058441;80
28;s03bis;A;pre;1;59.88404052541014;[0.014203900005668402, 0.017552100005559623, 0.017275999998673797, 0.016393199912272394];40;1;0.051221299916505814;2.tif;mask.tiff;-0.14;left;['left'];0.4528823000146076;1;0.744;3.0356824999907985;18
29;s03bis;A;pre;1;59.88404052541014;[0.016301600029692054, 0.017001700005494058, 0.0159908999921754, 0.0176412999862805];5;1;0.05063389998394996;7.tif;mask.tiff;0.14;right;['right'];0.30550659995060414;1;0.679;2.8206655000103638;23
30;s03bis;A;pre;1;59.88404052541014;[0.012178999953903258, 0.016664800001308322, 0.025923300068825483, 0.007557599921710789];75;5;0.050145699991844594;3.tif;mask.tiff;0.14;left;['left'];0.4859047000063583;1;1.162;3.484904400072992;85
31;s03bis;A;pre;1;59.88404052541014;[0.011873099952936172, 0.017170000006444752, 0.016506200074218214, 0.01695530000142753];39;5;0.0506315000820905;8.tif;mask.tiff;0.14;right;['right'];0.5903127000201494;1;0.745;3.165568199940026;89
32;s03bis;A;pre;1;59.88404052541014;[0.015510599943809211, 0.01692309998907149, 0.019122800091281533, 0.014435199904255569];1;1;0.05048109998460859;2.tif;mask.tiff;0.14;left;['left'];2.377600400010124;1;0.736;4.960665100021288;19
33;s03bis;A;pre;1;59.88404052541014;[0.01643949991557747, 0.01671270001679659, 0.016485600033774972, 0.016805100021883845];35;5;0.050003400072455406;3.tif;mask.tiff;0.14;left;['left'];0.5218436999712139;1;0.832;3.187659200048074;85
34;s03bis;A;pre;1;59.88404052541014;[0.016348800039850175, 0.016761800041422248, 0.016538399970158935, 0.016741600004024804];92;2;0.050041800015605986;blank.tiff;mask.tiff;-0.14;a;['right'];2.7173475000308827;0;1.215;5.766827999963425;32
35;s03bis;A;pre;1;59.88404052541014;[0.016963499947451055, 0.01643110008444637, 0.01702809997368604, 0.01732450001873076];28;4;0.05078370007686317;7.tif;mask.tiff;-0.14;right;['right'];0.5573441999731585;1;0.709;3.106916300021112;70
36;s03bis;A;pre;1;59.88404052541014;[0.017422499950043857, 0.016229200060479343, 0.016918999957852066, 0.016698700026609004];24;4;0.04984690004494041;2.tif;mask.tiff;-0.14;left;['left'];0.23083910008426756;1;0.602;2.6806448000716045;66
37;s03bis;A;pre;1;59.88404052541014;[0.016859499970450997, 0.01692279998678714, 0.01735880004707724, 0.016194400028325617];67;4;0.050476000062189996;3.tif;mask.tiff;0.14;left;['left'];0.33039040002040565;1;0.63;2.7969567000400275;69
38;s03bis;A;pre;1;59.88404052541014;[0.016677899984642863, 0.01676320005208254, 0.017188900033943355, 0.016841799952089787];10;2;0.05079390003811568;3.tif;mask.tiff;-0.14;left;['left'];0.3516950000775978;1;0.722;2.918138000066392;36
39;s03bis;A;pre;1;59.88404052541014;[0.016828499967232347, 0.017018400016240776, 0.016413499950431287, 0.017244000104255974];91;1;0.05067590007092804;blank.tiff;mask.tiff;0.14;a;['right'];0.46566969994455576;0;0.604;2.9162075999192894;17
40;s03bis;A;pre;1;59.88404052541014;[0.017029899987392128, 0.017618700047023594, 0.015524899936281145, 0.01659130002371967];94;3;0.04973490000702441;blank.tiff;mask.tiff;-0.14;a;['right'];0.4286159999901429;0;1.118;3.378575299982913;48
41;s03bis;A;pre;1;59.88404052541014;[0.017842200002633035, 0.01606070005800575, 0.021761299925856292, 0.01144250005017966];44;1;0.0492645000340417;7.tif;mask.tiff;-0.14;right;['right'];0.8292074999772012;1;0.769;3.444916300009936;22
42;s03bis;A;pre;1;59.88404052541014;[0.016974400030449033, 0.01615539996419102, 0.016526499995961785, 0.016918000066652894];0;1;0.0495999000268057;2.tif;mask.tiff;-0.14;left;['left'];0.3813726999796927;1;0.733;2.9643843000521883;18
43;s03bis;A;pre;1;59.88404052541014;[0.015912000089883804, 0.01707099995110184, 0.016725099994800985, 0.01651860005222261];63;3;0.050314699998125434;8.tif;mask.tiff;0.14;right;['right'];0.2922992999665439;1;0.671;2.808053100015968;57
44;s03bis;A;pre;1;59.88404052541014;[0.01644739997573197, 0.01653020002413541, 0.017173499916680157, 0.016199300065636635];47;1;0.0499030000064522;8.tif;mask.tiff;0.14;right;['right'];0.18223989999387413;1;0.682;2.7155734000261873;25
45;s03bis;A;pre;1;59.88404052541014;[0.016498000011779368, 0.016099800006486475, 0.0175986000103876, 0.015730799990706146];19;3;0.04942920000758022;3.tif;mask.tiff;0.14;left;['right'];0.940169999958016;0;2.66;5.439910399960354;53
46;s03bis;A;pre;1;59.88404052541014;[0.016347299912013113, 0.01687400008086115, 0.016054000006988645, 0.016723699984140694];46;1;0.04965170007199049;8.tif;mask.tiff;-0.14;right;['right'];0.8917200999567285;1;0.717;3.441817000042647;24
47;s03bis;A;pre;1;59.88404052541014;[0.015277400030754507, 0.01747249998152256, 0.01677920005749911, 0.015689300023950636];53;2;0.04994100006297231;7.tif;mask.tiff;0.14;right;['right'];0.2775119999423623;1;0.649;2.7619471000507474;39
48;s03bis;A;pre;1;59.88404052541014;[0.017106300103478134, 0.0162325999699533, 0.016972200013697147, 0.01666500000283122];38;5;0.04986979998648167;8.tif;mask.tiff;-0.14;right;['right'];0.2447682999772951;1;0.573;2.660912899998948;88
49;s03bis;A;pre;1;59.88404052541014;[0.016444799955934286, 0.017031299998052418, 0.0161346000386402, 0.016867100028321147];27;4;0.050033000065013766;3.tif;mask.tiff;0.14;left;['right'];0.8131652999436483;1;0.967;3.6133849000325426;69
50;s03bis;A;pre;1;59.88404052541014;[0.017783000017516315, 0.015649400069378316, 0.017258299980312586, 0.01739259995520115];17;3;0.05030030000489205;2.tif;mask.tiff;0.14;left;['left'];0.3571690999669954;1;0.615;2.8225586999906227;51
51;s03bis;A;pre;1;59.88404052541014;[0.01091790001373738, 0.01636310003232211, 0.017349099973216653, 0.015877499943599105];71;4;0.049589699949137866;8.tif;mask.tiff;0.14;right;['right'];0.30858239997178316;1;0.852;3.0083673999179155;73
52;s03bis;A;pre;1;59.88404052541014;[0.013253199984319508, 0.016508499975316226, 0.016874499968253076, 0.01610960008110851];61;3;0.04949260002467781;7.tif;mask.tiff;0.14;right;['right'];1.3635432999581099;1;1.571;4.7791165000526235;55
53;s03bis;A;pre;1;59.88404052541014;[0.01650509994942695, 0.016684100031852722, 0.01616310002282262, 0.01714189990889281];49;2;0.04998909996356815;2.tif;mask.tiff;0.14;left;['left'];0.5598634999478236;1;1.117;3.5097778000636026;35
54;s03bis;A;pre;1;59.88404052541014;[0.01671120000537485, 0.017199599999003112, 0.015931400004774332, 0.01705020002555102];82;2;0.050181200029328465;blank.tiff;mask.tiff;-0.14;a;['right'];0.5509433998959139;0;2.664;5.051713299937546;32
55;s03bis;A;pre;1;59.88404052541014;[0.016389800002798438, 0.01766530005261302, 0.015806699986569583, 0.016744200023822486];54;2;0.05021620006300509;8.tif;mask.tiff;-0.14;right;['right'];0.3274426000425592;1;0.863;3.026851100032218;40
56;s03bis;A;pre;1;59.88404052541014;[0.017776899971067905, 0.016369099961593747, 0.016082399990409613, 0.01676999998744577];31;4;0.04922149993944913;8.tif;mask.tiff;0.14;right;['right'];0.29530360002536327;1;0.533;2.662315799971111;73
57;s03bis;A;pre;1;59.88404052541014;[0.015339599922299385, 0.016407900024205446, 0.01672150008380413, 0.016886399942450225];4;1;0.0500158000504598;7.tif;mask.tiff;-0.14;right;['right'];1.448494500014931;1;1.511;4.797318700002506;22
58;s03bis;A;pre;1;59.88404052541014;[0.016993800061754882, 0.01712279999628663, 0.016179999918676913, 0.016514400020241737];72;5;0.04981719993520528;2.tif;mask.tiff;-0.14;left;['left'];0.6989999000215903;1;2.039;4.582965099951252;82
59;s03bis;A;pre;1;59.88404052541014;[0.01666229998227209, 0.027219000039622188, 0.005507999914698303, 0.017246200004592538];41;1;0.04997319995891303;2.tif;mask.tiff;0.14;left;['left'];0.5768093999940902;1;0.787;3.210052000009455;19
60;s03bis;A;pre;1;59.88404052541014;[0.017640299978666008, 0.015582300024107099, 0.01638049993198365, 0.017247900017537177];18;3;0.049210699973627925;3.tif;mask.tiff;-0.14;left;['left'];0.3574439000803977;1;0.72;2.9075565999373794;52
61;s03bis;A;pre;1;59.88404052541014;[0.016258200048469007, 0.016545299906283617, 0.01724140008445829, 0.01631969993468374];84;3;0.05010639992542565;blank.tiff;mask.tiff;-0.14;a;['left'];1.0286350999958813;0;0.706;3.5780617999844253;48
62;s03bis;A;pre;1;59.88404052541014;[0.016596800065599382, 0.027789599960669875, 0.005309400032274425, 0.016692399978637695];12;2;0.049791399971581995;7.tif;mask.tiff;-0.14;right;['right'];0.24694930005352944;1;0.703;2.797301399987191;38
63;s03bis;A;pre;1;59.88404052541014;[0.01600280008278787, 0.016739599988795817, 0.01752160000614822, 0.016197799937799573];8;2;0.05045899993274361;2.tif;mask.tiff;-0.14;left;['left'];0.34983840002678335;1;0.801;2.9822006999747828;34
64;s03bis;A;pre;1;59.88404052541014;[0.015495900064706802, 0.016984799993224442, 0.017568500014021993, 0.018086700001731515];43;1;0.05264000000897795;3.tif;mask.tiff;0.14;left;['left'];0.4855311999563128;1;0.854;3.1853734999895096;21
65;s03bis;A;pre;1;59.88404052541014;[0.016558900009840727, 0.016694299993105233, 0.016937600099481642, 0.016585299978032708];3;1;0.05021720007061958;3.tif;mask.tiff;0.14;left;['left'];0.4790026000700891;1;1.289;3.6126649000216275;21
66;s03bis;A;pre;1;59.88404052541014;[0.017335799988359213, 0.016612699953839183, 0.016075200052000582, 0.01689940004143864];9;2;0.049587300047278404;2.tif;mask.tiff;0.14;left;['right'];1.9882815999444574;0;2.051;5.870623600087129;35
67;s03bis;A;pre;1;59.88404052541014;[0.017064300016500056, 0.016364800045266747, 0.016609299927949905, 0.016270300024189055];55;2;0.04924439999740571;8.tif;mask.tiff;0.14;right;['right'];0.2719539999961853;1;0.913;3.021800000104122;41
68;s03bis;A;pre;1;59.88404052541014;[0.017587500042282045, 0.01625610003247857, 0.01658799999859184, 0.01710369996726513];26;4;0.04994779999833554;3.tif;mask.tiff;-0.14;left;['left'];0.31593569996766746;1;0.849;2.9989228000631556;68
69;s03bis;A;pre;1;59.88404052541014;[0.016628600074909627, 0.01763069990556687, 0.015998100046999753, 0.016942800022661686];57;3;0.05057159997522831;2.tif;mask.tiff;0.14;left;['right'];0.9701293000252917;0;2.947;5.752875200007111;51
70;s03bis;A;pre;1;59.88404052541014;[0.01651380001567304, 0.016803400008939207, 0.01615679997485131, 0.016974000027403235];93;2;0.04993420001119375;blank.tiff;mask.tiff;0.14;a;['right'];0.20914569997694343;0;0.662;2.70849560003262;33
71;s03bis;A;pre;1;59.88404052541014;[0.016730900038965046, 0.016062899958342314, 0.016810800065286458, 0.01685029990039766];11;2;0.04972399992402643;3.tif;mask.tiff;0.14;left;['left'];0.18998290004674345;1;0.722;2.7564406000310555;37
72;s03bis;A;pre;1;59.88404052541014;[0.017029899987392128, 0.015775599982589483, 0.016704900073818862, 0.016513200011104345];48;2;0.04899370006751269;2.tif;mask.tiff;-0.14;left;['left'];0.2732215999858454;1;0.712;2.823645700002089;34
73;s03bis;A;pre;1;59.88404052541014;[0.017406599945388734, 0.016052799997851253, 0.01677340001333505, 0.016960900044068694];87;4;0.049787100055254996;blank.tiff;mask.tiff;0.14;a;['right'];0.18146330001764;1;0.831;2.8494963999837637;65
74;s03bis;A;pre;1;59.88404052541014;[0.01705500006210059, 0.01595219993032515, 0.01681930001359433, 0.017174100037664175];76;5;0.049945599981583655;7.tif;mask.tiff;-0.14;right;['right'];0.34125609998591244;1;0.856;3.04123700002674;86
75;s03bis;A;pre;1;59.88404052541014;[0.017794999992474914, 0.01539840002078563, 0.017416000016964972, 0.016231799963861704];7;1;0.049046200001612306;8.tif;mask.tiff;0.14;right;['right'];0.57896349998191;1;1.134;3.545378700015135;25
76;s03bis;A;pre;1;59.88404052541014;[0.016403800109401345, 0.01686340000014752, 0.016822299920022488, 0.016265599988400936];89;5;0.049951299908570945;blank.tiff;mask.tiff;0.14;a;['left'];2.149251199909486;0;0.958;4.948873699991964;81
77;s03bis;A;pre;1;59.88404052541014;[0.015021099941805005, 0.0155392000451684, 0.017458299989812076, 0.015592499985359609];60;3;0.048590000020340085;7.tif;mask.tiff;-0.14;right;['right'];0.24299199995584786;1;0.749;2.82610319997184;54
78;s03bis;A;pre;1;59.88404052541014;[0.017042499966919422, 0.016314500011503696, 0.017479400034062564, 0.016186799970455468];83;2;0.04998070001602173;blank.tiff;mask.tiff;0.14;a;['right'];0.47288859996479005;1;1.441;3.7565162000246346;33
79;s03bis;A;pre;1;59.88404052541014;[0.015620999969542027, 0.01777779997792095, 0.015860100043937564, 0.016369099961593747];23;3;0.05000699998345226;8.tif;mask.tiff;0.14;right;['right'];0.34336329996585846;0;5.995;8.177158100064844;57
80;s03bis;A;pre;1;59.88404052541014;[0.01675549999345094, 0.016558900009840727, 0.016563500044867396, 0.01696749997790903];50;2;0.05008990003261715;3.tif;mask.tiff;-0.14;left;['left'];0.29842450004071;1;0.558;2.6980299999704584;36
81;s03bis;A;pre;1;59.88404052541014;[0.01693179993890226, 0.016433199984021485, 0.015860100043937564, 0.01782820001244545];64;4;0.0501215000404045;2.tif;mask.tiff;-0.14;left;['left'];0.3865273999981582;1;0.719;2.9362488999031484;66
82;s03bis;A;pre;1;59.88404052541014;[0.016761000035330653, 0.016474800067953765, 0.01725789997726679, 0.01617289998102933];86;4;0.049905600026249886;blank.tiff;mask.tiff;-0.14;a;['right'];0.3788136999355629;0;0.84;3.0631613000296056;64
83;s03bis;A;pre;1;59.88404052541014;[0.023008399992249906, 0.010007899953052402, 0.016529200016520917, 0.017612099996767938];21;3;0.04414919996634126;7.tif;mask.tiff;0.14;right;['right'];1.1233311999822035;1;0.948;3.907751400023699;55
84;s03bis;A;pre;1;59.88404052541014;[0.016992999939247966, 0.015633100061677396, 0.017349999980069697, 0.01648009999189526];79;5;0.04946320003364235;8.tif;mask.tiff;0.14;right;['right'];0.16570220002904534;1;0.721;2.732228600070812;89
85;s03bis;A;pre;1;59.88404052541014;[0.015520100016146898, 0.017035100026987493, 0.016272599925287068, 0.015812600031495094];85;3;0.049120299983769655;blank.tiff;mask.tiff;0.14;a;['left'];0.18936000007670373;1;0.835;2.855930099962279;49
86;s03bis;A;pre;1;59.88404052541014;[0.016475200070999563, 0.016277099959552288, 0.017343000043183565, 0.01732430001720786];96;4;0.050944400019943714;blank.tiff;mask.tiff;-0.14;a;['left'];0.6135245999321342;0;1.017;3.479082499979995;64
87;s03bis;A;pre;1;59.88404052541014;[0.01664729998447001, 0.01677159999962896, 0.017228900105692446, 0.016479499987326562];13;2;0.05048000009264797;7.tif;mask.tiff;0.14;right;['left'];0.35579659999348223;1;0.862;3.0550446999259293;39
88;s03bis;A;pre;1;59.88404052541014;[0.017036199918948114, 0.01688000001013279, 0.01708130002953112, 0.016474399948492646];56;3;0.05043569998815656;2.tif;mask.tiff;-0.14;left;['left'];1.3386782000306994;1;0.907;4.087773600011133;50
89;s03bis;A;pre;1;59.88404052541014;[0.016825399943627417, 0.015959099982865155, 0.016498600016348064, 0.017286799964495003];6;1;0.04974449996370822;8.tif;mask.tiff;-0.14;right;['right'];0.39280299993697554;1;1.504;3.7418166000861675;24
90;s03bis;A;pre;1;59.88404052541014;[0.016948499949648976, 0.016531300032511353, 0.016327999997884035, 0.017336699995212257];52;2;0.050196000025607646;7.tif;mask.tiff;-0.14;right;['right'];0.5074697000673041;1;0.719;3.07421200000681;38
91;s03bis;A;pre;1;59.88404052541014;[0.017122099990956485, 0.016298800008371472, 0.0174548999639228, 0.015746799996122718];20;3;0.04950049996841699;7.tif;mask.tiff;-0.14;right;['right'];0.3103017999092117;1;0.682;2.826894799945876;54
92;s03bis;A;pre;1;59.88404052541014;[0.015565400011837482, 0.016800299985334277, 0.01730039995163679, 0.022075299988500774];73;5;0.05617599992547184;2.tif;mask.tiff;0.14;left;['left'];0.3405594000359997;1;0.743;2.9233323999214917;83
93;s03bis;A;pre;1;59.88404052541014;[0.01672440010588616, 0.017237799940630794, 0.016709099989384413, 0.016534500056877732];25;4;0.05048139998689294;2.tif;mask.tiff;0.14;left;['left'];0.7143387000542134;1;13.139;15.696989399963059;67
94;s03bis;A;pre;1;59.88404052541014;[0.015861300053074956, 0.01682059990707785, 0.01661660009995103, 0.01726489991415292];30;4;0.0507020999211818;8.tif;mask.tiff;-0.14;right;['right'];0.36230450007133186;1;1.094;3.278423000010662;72
95;s03bis;A;pre;1;59.88404052541014;[0.01697129989042878, 0.017380100092850626, 0.01596879994031042, 0.017130100051872432];99;5;0.050479000085033476;blank.tiff;mask.tiff;0.14;a;['left'];0.8345140999881551;0;0.7;3.3675284000346437;81
96;s03bis;A;pre;1;59.88404052541014;[0.016502500046044588, 0.01610490004532039, 0.01753499999176711, 0.01638069993350655];90;1;0.05002059997059405;blank.tiff;mask.tiff;-0.14;a;['left'];0.7823557999217883;0;0.639;3.2656492999522015;16
97;s03bis;A;pre;1;59.88404052541014;[0.016463100095279515, 0.016327799996361136, 0.017769099911674857, 0.015628900029696524];58;3;0.04972579993773252;3.tif;mask.tiff;-0.14;left;['left'];0.32348469994030893;1;0.693;2.8567472000140697;52
98;s03bis;A;pre;1;59.88404052541014;[0.016378200030885637, 0.016785599989816546, 0.01631980005186051, 0.01684719999320805];34;5;0.04995260003488511;3.tif;mask.tiff;-0.14;left;['left'];0.23906469997018576;1;0.598;2.6727554000681266;84
99;s03bis;A;pre;1;59.88404052541014;[0.016839300049468875, 0.016880199895240366, 0.01631540001835674, 0.016117300023324788];95;3;0.049312899936921895;blank.tiff;mask.tiff;0.14;a;['right'];0.2150111000519246;0;1.221;3.2815058999694884;49
100;s03bis;A;pre;2;59.88404052541014;[0.017519499990157783, 0.016539899981580675, 0.015746999997645617, 0.01655820000451058];99;5;0.04884509998373687;blank.tiff;mask.tiff;0.14;a;['left'];0.22652950009796768;0;0.678;2.7436058999737725;81
101;s03bis;A;pre;2;59.88404052541014;[0.016984699992462993, 0.016489599947817624, 0.016764900065027177, 0.017166199977509677];48;2;0.05042069999035448;2.tif;mask.tiff;-0.14;left;['left'];0.25746720004826784;1;0.644;2.740318800089881;34
102;s03bis;A;pre;2;59.88404052541014;[0.0161155000096187, 0.01644879998639226, 0.01665610005147755, 0.02656649996060878];40;1;0.05967139999847859;2.tif;mask.tiff;-0.14;left;['left'];0.2612002999521792;1;0.858;2.9617692000465468;18
103;s03bis;A;pre;2;59.88404052541014;[0.016513399896211922, 0.016645200084894896, 0.02170549996662885, 0.011524399975314736];88;5;0.04987510002683848;blank.tiff;mask.tiff;-0.14;a;['right'];0.5669459999771789;0;2.112;4.516390100005083;80
104;s03bis;A;pre;2;59.88404052541014;[0.015134999994188547, 0.015873700031079352, 0.017222399939782917, 0.016584200086072087];89;5;0.04968030005693436;blank.tiff;mask.tiff;0.14;a;['right'];0.4514837999595329;0;0.943;3.2344549999106675;81
105;s03bis;A;pre;2;59.88404052541014;[0.01649340009316802, 0.016756400000303984, 0.017019999912008643, 0.016414700075984];73;5;0.05019109998829663;2.tif;mask.tiff;0.14;left;['left'];0.8029928000178188;1;0.607;3.2522506000241265;83
106;s03bis;A;pre;2;59.88404052541014;[0.008189199957996607, 0.016574300010688603, 0.01680450001731515, 0.016597199952229857];32;5;0.04997599998023361;2.tif;mask.tiff;-0.14;left;['right'];0.37276360008399934;1;1.525;3.7388821000931785;82
107;s03bis;A;pre;2;59.88404052541014;[0.016538699972443283, 0.01621780009008944, 0.016897999914363027, 0.01644150004722178];58;3;0.04955730005167425;3.tif;mask.tiff;-0.14;left;['right'];0.6175968000898138;0;3.741;6.200599899981171;52
108;s03bis;A;pre;2;59.88404052541014;[0.01413620007224381, 0.016925500007346272, 0.015717200003564358, 0.01692259998526424];31;4;0.04956529999617487;8.tif;mask.tiff;0.14;right;['right'];0.20962839992716908;1;0.775;2.8259271000279114;73
109;s03bis;A;pre;2;59.88404052541014;[0.013812100049108267, 0.016575800022110343, 0.016173999989405274, 0.017348299967125058];63;3;0.050098099978640676;8.tif;mask.tiff;0.14;right;['right'];0.24780750006902963;1;1.073;3.1641200000885874;57
110;s03bis;A;pre;2;59.88404052541014;[0.016875099972821772, 0.016314400010742247, 0.017345999949611723, 0.01563410006929189];43;1;0.04929450002964586;3.tif;mask.tiff;0.14;left;['right'];0.3839991999557242;1;0.74;2.966548199998215;21
111;s03bis;A;pre;2;59.88404052541014;[0.012775199953466654, 0.01663830003235489, 0.017325399909168482, 0.01602070010267198];59;3;0.049984400044195354;3.tif;mask.tiff;0.14;left;['left'];1.0971225999528542;1;0.796;3.730838799965568;53
112;s03bis;A;pre;2;59.88404052541014;[0.0170887999702245, 0.01680870004929602, 0.016238800017163157, 0.016485199914313853];87;4;0.04953269998077303;blank.tiff;mask.tiff;0.14;a;['left'];0.9887911999830976;0;0.799;3.6218173999805003;65
113;s03bis;A;pre;2;59.88404052541014;[0.017648600041866302, 0.015525099937804043, 0.01696749997790903, 0.017143400036729872];81;1;0.049635999952442944;blank.tiff;mask.tiff;0.14;a;['left'];0.41480490006506443;0;0.801;3.6477075999137014;17
114;s03bis;A;pre;2;59.88404052541014;[0.016571299987845123, 0.01712119998410344, 0.01610040001105517, 0.01701630000025034];55;2;0.05023789999540895;8.tif;mask.tiff;0.14;right;['right'];0.2669011999387294;1;0.675;2.7832810999825597;41
115;s03bis;A;pre;2;59.88404052541014;[0.015609599999152124, 0.017271700082346797, 0.016587699996307492, 0.01643969991710037];60;3;0.05029909999575466;7.tif;mask.tiff;-0.14;right;['right'];0.8786576999118552;1;0.857;3.578468200052157;54
116;s03bis;A;pre;2;59.88404052541014;[0.01672910002525896, 0.016350100049749017, 0.016243699938058853, 0.01716729998588562];39;5;0.04976109997369349;8.tif;mask.tiff;0.14;right;['left'];5.145411600009538;0;2.266;9.244649500004016;89
117;s03bis;A;pre;2;59.88404052541014;[0.017339900019578636, 0.01609319995623082, 0.01682840008288622, 0.016348499921150506];76;5;0.049270099960267544;7.tif;mask.tiff;-0.14;right;['right'];0.382454099948518;1;0.975;3.198550199973397;86
118;s03bis;A;pre;2;59.88404052541014;[0.015881599974818528, 0.01732129999436438, 0.016195100033655763, 0.017153699998743832];86;4;0.050670100026763976;blank.tiff;mask.tiff;-0.14;a;['right'];0.42877959995530546;0;1.349;3.6114149000495672;64
119;s03bis;A;pre;2;59.88404052541014;[0.015542999957688153, 0.017228399985469878, 0.01623850001487881, 0.01703380001708865];52;2;0.05050070001743734;7.tif;mask.tiff;-0.14;right;['right'];0.3690877999179065;1;1.174;3.385983800049871;38
120;s03bis;A;pre;2;59.88404052541014;[0.015959299984388053, 0.018038899987004697, 0.01614970003720373, 0.016520799952559173];53;2;0.0507093999767676;7.tif;mask.tiff;0.14;right;['right'];0.5271121000405401;1;1.12;3.4939589999848977;39
121;s03bis;A;pre;2;59.88404052541014;[0.01656320004258305, 0.01670349994674325, 0.016320500057190657, 0.016682300018146634];71;4;0.04970630002208054;8.tif;mask.tiff;0.14;right;['left'];0.5365065999794751;0;1.061;3.4363899000454694;73
122;s03bis;A;pre;2;59.88404052541014;[0.016528200008906424, 0.016442199936136603, 0.01656460005324334, 0.017224599956534803];44;1;0.050231399945914745;7.tif;mask.tiff;-0.14;right;['right'];0.3295658000279218;1;0.633;2.79638509999495;22
123;s03bis;A;pre;2;59.88404052541014;[0.015865700086578727, 0.01784869993571192, 0.015200700028799474, 0.017295300029218197];9;2;0.05034469999372959;2.tif;mask.tiff;0.14;left;['right'];0.409459299989976;1;0.906;3.1600785000482574;35
124;s03bis;A;pre;2;59.88404052541014;[0.016671599936671555, 0.01638960000127554, 0.01662970008328557, 0.016702499939128757];17;3;0.049721800023689866;2.tif;mask.tiff;0.14;left;['left'];0.3161504000891;1;0.751;2.898715600022115;51
125;s03bis;A;pre;2;59.88404052541014;[0.013814400066621602, 0.016638899920508265, 0.016427500057034194, 0.016859899973496795];90;1;0.049926299951039255;blank.tiff;mask.tiff;-0.14;a;['right'];0.39348109997808933;0;1.195;3.4264472000068054;16
126;s03bis;A;pre;2;59.88404052541014;[0.015891799936071038, 0.016810100059956312, 0.01723809994291514, 0.016109000076539814];98;5;0.05015720007941127;blank.tiff;mask.tiff;-0.14;a;['right'];0.5843051999108866;0;1.87;18.650629300042056;80
127;s03bis;A;pre;2;59.88404052541014;[0.01688259991351515, 0.016966900089755654, 0.016979599953629076, 0.01624460006132722];34;5;0.05019110010471195;3.tif;mask.tiff;-0.14;left;['left'];0.30133899999782443;1;1.094;3.2337506000185385;84
128;s03bis;A;pre;2;59.88404052541014;[0.014365199953317642, 0.016873600077815354, 0.016510199988260865, 0.016557700000703335];13;2;0.049941500066779554;7.tif;mask.tiff;0.14;right;['right'];0.2219207000453025;1;1.12;3.188752999994904;39
129;s03bis;A;pre;2;59.88404052541014;[0.016034299973398447, 0.017512400052510202, 0.016251399996690452, 0.016381900059059262];84;3;0.050145700108259916;blank.tiff;mask.tiff;-0.14;a;['right'];0.4602448999648914;0;1.429;3.7256975000491366;48
130;s03bis;A;pre;2;59.88404052541014;[0.01692139997612685, 0.017301700077950954, 0.016308699967339635, 0.02640650002285838];3;1;0.06001690006814897;3.tif;mask.tiff;0.14;left;['left'];0.8344951000763103;1;0.636;3.300787099986337;21
131;s03bis;A;pre;2;59.88404052541014;[0.016874599969014525, 0.016628499957732856, 0.02590470004361123, 0.0074610000010579824];5;1;0.04999420000240207;7.tif;mask.tiff;0.14;right;['right'];0.2299767000367865;1;0.656;2.728747200104408;23
132;s03bis;A;pre;2;59.88404052541014;[0.015627500019036233, 0.01658049994148314, 0.01626930001657456, 0.016867400030605495];85;3;0.0497171999886632;blank.tiff;mask.tiff;0.14;a;['right'];0.5144956998992711;0;1.275;3.6302501999307424;49
133;s03bis;A;pre;2;59.88404052541014;[0.015625300002284348, 0.017261100001633167, 0.01734220003709197, 0.016342999995686114];14;2;0.05094630003441125;8.tif;mask.tiff;-0.14;right;['right'];0.5215173999313265;1;0.699;3.054924500058405;40
134;s03bis;A;pre;2;59.88404052541014;[0.015478299930691719, 0.017095600022003055, 0.01690060005057603, 0.01603969989810139];8;2;0.050035899970680475;2.tif;mask.tiff;-0.14;left;['left'];0.5420537999598309;1;0.811;3.19092860003002;34
135;s03bis;A;pre;2;59.88404052541014;[0.01739990001078695, 0.01659969997126609, 0.016467100009322166, 0.01669449999462813];92;2;0.04976129997521639;blank.tiff;mask.tiff;-0.14;a;['right'];0.3820884000742808;0;2.9;5.114539200090803;32
136;s03bis;A;pre;2;59.88404052541014;[0.015833199955523014, 0.01748020004015416, 0.016966999974101782, 0.015240499982610345];36;5;0.049687699996866286;7.tif;mask.tiff;-0.14;right;['right'];0.40005689999088645;1;0.765;3.0000620000064373;86
137;s03bis;A;pre;2;59.88404052541014;[0.01674390002153814, 0.01694240001961589, 0.01644269993994385, 0.01722850010264665];30;4;0.05061360006220639;8.tif;mask.tiff;-0.14;right;['right'];0.4360133999725804;1;0.689;2.968656500102952;72
138;s03bis;A;pre;2;59.88404052541014;[0.018072200007736683, 0.015464399941265583, 0.017499999958090484, 0.016178500023670495];18;3;0.04914289992302656;3.tif;mask.tiff;-0.14;left;['left'];0.2886557000456378;1;0.659;2.788765399949625;52
139;s03bis;A;pre;2;59.88404052541014;[0.016532300040125847, 0.016606500023044646, 0.016973699908703566, 0.01660740002989769];50;2;0.0501875999616459;3.tif;mask.tiff;-0.14;left;['left'];0.4343441999517381;1;0.881;3.1503391000442207;36
140;s03bis;A;pre;2;59.88404052541014;[0.017203500028699636, 0.01606209995225072, 0.01647549995686859, 0.01725360006093979];54;2;0.0497911999700591;8.tif;mask.tiff;-0.14;right;['right'];0.3085334999486804;1;0.787;3.458816400030628;40
141;s03bis;A;pre;2;59.88404052541014;[0.016608999925665557, 0.01729800004977733, 0.01688000001013279, 0.016012900043278933];49;2;0.05019090010318905;2.tif;mask.tiff;0.14;left;['left'];0.631842999951914;1;1.038;3.5147199999773875;35
142;s03bis;A;pre;2;59.88404052541014;[0.016846700105816126, 0.016772599890828133, 0.016957400017417967, 0.0161896999925375];15;2;0.0499196999007836;8.tif;mask.tiff;0.14;right;['right'];0.266043399926275;1;0.928;3.0329900999786332;41
143;s03bis;A;pre;2;59.88404052541014;[0.016297299996949732, 0.017510200035758317, 0.01567250001244247, 0.017000499996356666];2;1;0.05018320004455745;3.tif;mask.tiff;-0.14;left;['left'];0.8980427000205964;1;3.765;6.496860000072047;20
144;s03bis;A;pre;2;59.88404052541014;[0.016111499979160726, 0.016648299992084503, 0.01722959999460727, 0.016292200074531138];20;3;0.05017010006122291;7.tif;mask.tiff;-0.14;right;['right'];0.4208367000101134;1;0.844;3.1044754999456927;54
145;s03bis;A;pre;2;59.88404052541014;[0.01735089998692274, 0.019476099987514317, 0.013663300080224872, 0.01667089993134141];64;4;0.0498102999990806;2.tif;mask.tiff;-0.14;left;['left'];0.5086892999242991;0;0.991;3.3417118000797927;66
146;s03bis;A;pre;2;59.88404052541014;[0.016356599982827902, 0.017195699969306588, 0.0162903000600636, 0.01700429990887642];35;5;0.05049029993824661;3.tif;mask.tiff;0.14;left;['right'];1.2730235999915749;0;6.398;9.50573719991371;85
147;s03bis;A;pre;2;59.88404052541014;[0.0171198999742046, 0.016064099967479706, 0.01629060006234795, 0.01700310001615435];83;2;0.049357800045982;blank.tiff;mask.tiff;0.14;a;['right'];0.35013659996911883;0;0.8;2.98429589997977;33
148;s03bis;A;pre;2;59.88404052541014;[0.016587699996307492, 0.017019900027662516, 0.01685010001529008, 0.016543799894861877];16;3;0.050413799937814474;2.tif;mask.tiff;-0.14;left;['left'];0.33589770004618913;1;0.846;3.0191110000014305;50
149;s03bis;A;pre;2;59.88404052541014;[0.018021799973212183, 0.015624199993908405, 0.016442299936898053, 0.016786899999715388];61;3;0.048853399930521846;7.tif;mask.tiff;0.14;right;['right'];0.39072390005458146;1;0.712;2.9409032999537885;55
150;s03bis;A;pre;2;59.88404052541014;[0.016942700021900237, 0.01651380001567304, 0.01719260006211698, 0.016228699940256774];96;4;0.049935100018046796;blank.tiff;mask.tiff;-0.14;a;['left'];0.34296060004271567;0;0.805;2.9923832999775186;64
151;s03bis;A;pre;2;59.88404052541014;[0.01593950006645173, 0.016692699980922043, 0.01747550000436604, 0.015546299982815981];25;4;0.049714499968104064;2.tif;mask.tiff;0.14;left;['left'];0.26734119991306216;0;1.741;3.851030300022103;67
152;s03bis;A;pre;2;59.88404052541014;[0.013692099950276315, 0.017343200044706464, 0.016190199996344745, 0.017142900032922626];29;4;0.050676300073973835;7.tif;mask.tiff;0.14;right;['right'];0.4978158000158146;1;0.729;3.068316200049594;71
153;s03bis;A;pre;2;59.88404052541014;[0.01670949999243021, 0.016814199974760413, 0.0161585999885574, 0.017011600080877542];45;1;0.049984400044195354;7.tif;mask.tiff;0.14;right;['right'];0.15515760006383061;1;0.944;2.9385060999775305;23
154;s03bis;A;pre;2;59.88404052541014;[0.017058499972335994, 0.01721610000822693, 0.015909699955955148, 0.01656460005324334];24;4;0.04969040001742542;2.tif;mask.tiff;-0.14;left;['left'];0.31979610002599657;1;0.769;2.9357200999511406;66
155;s03bis;A;pre;2;59.88404052541014;[0.01618060003966093, 0.017447100020945072, 0.015830399934202433, 0.017040400067344308];75;5;0.05031790002249181;3.tif;mask.tiff;0.14;left;['left'];1.3478151999879628;1;0.599;3.7802889000158757;85
156;s03bis;A;pre;2;59.88404052541014;[0.01714799995534122, 0.016631999984383583, 0.016640300047583878, 0.016383899957872927];23;3;0.04965619998984039;8.tif;mask.tiff;0.14;right;['right'];0.2939732000231743;1;0.595;2.7274032999994233;57
157;s03bis;A;pre;2;59.88404052541014;[0.01631249999627471, 0.016308399965055287, 0.017224599956534803, 0.01683259999845177];78;5;0.05036559992004186;8.tif;mask.tiff;-0.14;right;['left'];0.6368251999374479;0;1.131;3.603847000049427;88
158;s03bis;A;pre;2;59.88404052541014;[0.01670070004183799, 0.01679989998228848, 0.016449299990199506, 0.016547199920751154];33;5;0.04979639989323914;2.tif;mask.tiff;0.14;left;['left'];0.3420333999674767;1;0.96;3.1418788000009954;83
159;s03bis;A;pre;2;59.88404052541014;[0.01636600005440414, 0.017149199964478612, 0.01564860006328672, 0.017215400002896786];68;4;0.05001320003066212;7.tif;mask.tiff;-0.14;right;['right'];0.5135366000467911;0;8.228;10.579246500041336;70
160;s03bis;A;pre;2;59.88404052541014;[0.012602000031620264, 0.016791800037026405, 0.01694649993441999, 0.016444900073111057];4;1;0.05018320004455745;7.tif;mask.tiff;-0.14;right;['right'];0.2172927000792697;1;0.873;2.9334759999765083;22
161;s03bis;A;pre;2;59.88404052541014;[0.0165478999260813, 0.01670360006392002, 0.01669790002051741, 0.016966799972578883];0;1;0.05036830005701631;2.tif;mask.tiff;-0.14;left;['left'];0.2988772999960929;1;0.765;2.8980039000744;18
162;s03bis;A;pre;2;59.88404052541014;[0.01833510003052652, 0.015466200071386993, 0.01655679999385029, 0.016859499970450997];69;4;0.04888250003568828;7.tif;mask.tiff;0.14;right;['right'];0.216005599941127;1;0.753;2.815792999928817;71
163;s03bis;A;pre;2;59.88404052541014;[0.01619840005878359, 0.01609609997831285, 0.017343199928291142, 0.015962500008754432];56;3;0.049401799915358424;2.tif;mask.tiff;-0.14;left;['left'];0.5812841000733897;0;11.312;13.730915699969046;50
164;s03bis;A;pre;2;59.88404052541014;[0.016701200045645237, 0.015896599972620606, 0.01748000003863126, 0.016616599983535707];19;3;0.049993199994787574;3.tif;mask.tiff;0.14;left;['left'];0.3997722000349313;1;0.701;2.950095299980603;53
165;s03bis;A;pre;2;59.88404052541014;[0.01733309996780008, 0.01648720004595816, 0.01653919997625053, 0.016841000062413514];66;4;0.049867400084622204;3.tif;mask.tiff;-0.14;left;['left'];0.3578925000037998;1;0.89;3.091143799945712;68
166;s03bis;A;pre;2;59.88404052541014;[0.01696859998628497, 0.016031900071538985, 0.01685739995446056, 0.017275899997912347];12;2;0.05016520002391189;7.tif;mask.tiff;-0.14;right;['right'];0.27912299998570234;1;0.832;2.9449947000248358;38
167;s03bis;A;pre;2;59.88404052541014;[0.016475699958391488, 0.016351600061170757, 0.016908799996599555, 0.016828799969516695];72;5;0.050089200027287006;2.tif;mask.tiff;-0.14;left;['right'];0.21908019995316863;1;0.64;2.70125039992854;82
168;s03bis;A;pre;2;59.88404052541014;[0.017314199940301478, 0.016339900088496506, 0.01688589993864298, 0.016501600039191544];74;5;0.04972740006633103;3.tif;mask.tiff;-0.14;left;['left'];0.33129929995629936;1;0.822;2.99681010004133;84
169;s03bis;A;pre;2;59.88404052541014;[0.016997299971990287, 0.016504299943335354, 0.016410700045526028, 0.016944900038652122];37;5;0.049859900027513504;7.tif;mask.tiff;0.14;right;['right'];0.5904391999356449;0;4.358;6.790761600015685;87
170;s03bis;A;pre;2;59.88404052541014;[0.01660849992185831, 0.016268800012767315, 0.017728300066664815, 0.015799099928699434];47;1;0.049796200008131564;8.tif;mask.tiff;0.14;right;['right'];1.267701099975966;1;0.712;3.8172982999822125;25
171;s03bis;A;pre;2;59.88404052541014;[0.016395900049246848, 0.015901400009170175, 0.017919500009156764, 0.016186799970455468];1;1;0.050007699988782406;2.tif;mask.tiff;0.14;left;['left'];0.27668939996510744;1;0.696;2.809809700003825;19
172;s03bis;A;pre;2;59.88404052541014;[0.015927899978123605, 0.01697620004415512, 0.016807100037112832, 0.01722789998166263];57;3;0.051011200062930584;2.tif;mask.tiff;0.14;left;['left'];0.3492538999998942;1;0.764;2.9488263999810442;51
173;s03bis;A;pre;2;59.88404052541014;[0.01600589998997748, 0.017255200073122978, 0.016383099951781332, 0.017437700065784156];46;1;0.05107600009068847;8.tif;mask.tiff;-0.14;right;['right'];0.21531579992733896;1;1.013;3.064612500020303;24
174;s03bis;A;pre;2;59.88404052541014;[0.016867399914190173, 0.01707990001887083, 0.01646349998190999, 0.01641040004324168];80;1;0.0499538000440225;blank.tiff;mask.tiff;-0.14;a;['left'];0.5586245999438688;0;6.031;8.42483929998707;16
175;s03bis;A;pre;2;59.88404052541014;[0.017144500045105815, 0.016381400055252016, 0.018553299945779145, 0.015111300046555698];22;3;0.05004600004758686;8.tif;mask.tiff;-0.14;right;['right'];0.2195746999932453;1;0.904;2.9698776999721304;56
176;s03bis;A;pre;2;59.88404052541014;[0.0164736999431625, 0.01700420002453029, 0.017050100024789572, 0.016753599978983402];79;5;0.050807900028303266;8.tif;mask.tiff;0.14;right;['right'];0.3893010999308899;1;0.756;2.9893797000404447;89
177;s03bis;A;pre;2;59.88404052541014;[0.014197800075635314, 0.01659699995070696, 0.01619550003670156, 0.017146099940873682];7;1;0.0499385999282822;8.tif;mask.tiff;0.14;right;['right'];0.2124387000221759;1;0.826;2.8793480000458658;25
178;s03bis;A;pre;2;59.88404052541014;[0.013568500056862831, 0.01689910003915429, 0.016461499966681004, 0.01739069994073361];93;2;0.050751299946568906;blank.tiff;mask.tiff;0.14;a;['right'];0.6959758000448346;0;1.75;4.278424499905668;33
179;s03bis;A;pre;2;59.88404052541014;[0.01573750004172325, 0.017405099933966994, 0.016211100039072335, 0.016873299959115684];6;1;0.05048949993215501;8.tif;mask.tiff;-0.14;right;['right'];0.21891030005645007;1;1.052;3.1019842999521643;24
180;s03bis;A;pre;2;59.88404052541014;[0.0172251999611035, 0.01582650002092123, 0.017505800002254546, 0.016977300052531064];65;4;0.05030960007570684;2.tif;mask.tiff;0.14;left;['left'];0.23722849995829165;1;0.744;2.820659299963154;67
181;s03bis;A;pre;2;59.88404052541014;[0.016327699995599687, 0.017175599932670593, 0.01703380001708865, 0.016487100045196712];67;4;0.05069649999495596;3.tif;mask.tiff;0.14;left;['left'];1.3407605999382213;1;0.995;4.173666100017726;69
182;s03bis;A;pre;2;59.88404052541014;[0.01688119990285486, 0.016186000080779195, 0.01737449993379414, 0.020138600026257336];91;1;0.05369910004083067;blank.tiff;mask.tiff;0.14;a;['left'];0.5387075000908226;0;0.915;3.288500699913129;17
183;s03bis;A;pre;2;59.88404052541014;[0.017099600052461028, 0.015946900006383657, 0.01619240001309663, 0.017187399906106293];82;2;0.04932669992558658;blank.tiff;mask.tiff;-0.14;a;['left'];0.3869037999538705;0;0.89;3.1194273000583053;32
184;s03bis;A;pre;2;59.88404052541014;[0.01693929999601096, 0.01650809997227043, 0.017158000031486154, 0.016210600035265088];51;2;0.04987670003902167;3.tif;mask.tiff;0.14;left;['left'];0.6955259999958798;1;0.701;3.244756000000052;37
185;s03bis;A;pre;2;59.88404052541014;[0.016828999971039593, 0.016676599974744022, 0.01655669999308884, 0.01792320003733039];41;1;0.05115650000516325;2.tif;mask.tiff;0.14;left;['left'];0.23553950001951307;1;0.817;2.885976199992001;19
186;s03bis;A;pre;2;59.88404052541014;[0.01662659994326532, 0.01636300003156066, 0.017221100046299398, 0.01631540001835674];27;4;0.0498995000962168;3.tif;mask.tiff;0.14;left;['left'];0.3906989999813959;1;0.903;3.1412741999374703;69
187;s03bis;A;pre;2;59.88404052541014;[0.016546300030313432, 0.01696280005853623, 0.01676739996764809, 0.01678039995022118];62;3;0.0505105999764055;8.tif;mask.tiff;-0.14;right;['right'];0.9109730999916792;0;0.991;3.7451925999484956;56
188;s03bis;A;pre;2;59.88404052541014;[0.01678339997306466, 0.015997699927538633, 0.01679850008804351, 0.016686499933712184];10;2;0.04948269994929433;3.tif;mask.tiff;-0.14;left;['left'];0.8330500000156462;1;2.045;4.716307699913159;36
189;s03bis;A;pre;2;59.88404052541014;[0.016723999986425042, 0.01675860001705587, 0.016393500030972064, 0.016599099966697395];77;5;0.04975120001472533;7.tif;mask.tiff;0.14;right;['left'];8.378080799942836;0;3.155;13.377914100070484;87
190;s03bis;A;pre;2;59.88404052541014;[0.016858099959790707, 0.017768100020475686, 0.014872799976728857, 0.024306200095452368];21;3;0.05694710009265691;7.tif;mask.tiff;0.14;right;['right'];0.4098412999883294;1;0.647;2.893352499930188;55
191;s03bis;A;pre;2;59.88404052541014;[0.016552300076000392, 0.01641329994890839, 0.016796800075098872, 0.01609449996612966];26;4;0.04930459999013692;3.tif;mask.tiff;-0.14;left;['right'];0.1705388999544084;1;0.61;2.6202826000517234;68
192;s03bis;A;pre;2;59.88404052541014;[0.01697350002359599, 0.015847699949517846, 0.01782820001244545, 0.015446100034750998];28;4;0.049121999996714294;7.tif;mask.tiff;-0.14;right;['right'];0.17572369996923953;1;0.731;2.7417945000343025;70
193;s03bis;A;pre;2;59.88404052541014;[0.016009900020435452, 0.01721199997700751, 0.016406100010499358, 0.02189380000345409];38;5;0.055511899990960956;8.tif;mask.tiff;-0.14;right;['right'];0.31910049996804446;1;0.649;2.8189329999731854;88
194;s03bis;A;pre;2;59.88404052541014;[0.01733940001577139, 0.016896799905225635, 0.01635819999501109, 0.01569930010009557];94;3;0.048954300000332296;blank.tiff;mask.tiff;-0.14;a;['left'];0.4997890000231564;0;1.368;3.6987614000681788;48
195;s03bis;A;pre;2;59.88404052541014;[0.016549200052395463, 0.017390499939210713, 0.016530800028704107, 0.01713910000398755];97;4;0.05106039997190237;blank.tiff;mask.tiff;0.14;a;['left'];0.4244433999992907;0;0.806;3.0739585999399424;65
196;s03bis;A;pre;2;59.88404052541014;[0.01591529999859631, 0.017614300013519824, 0.016717799939215183, 0.01642200001515448];70;4;0.05075409996788949;8.tif;mask.tiff;-0.14;right;['right'];1.1814051000401378;1;1.063;4.0978562999516726;72
197;s03bis;A;pre;2;59.88404052541014;[0.016803600010462105, 0.016092799953185022, 0.016724699991755188, 0.016910800011828542];11;2;0.04972829995676875;3.tif;mask.tiff;0.14;left;['left'];0.4816520999884233;1;1.495;3.81482130009681;37
198;s03bis;A;pre;2;59.88404052541014;[0.016673100064508617, 0.01738929993007332, 0.016753700096160173, 0.016133499913848937];42;1;0.05027649994008243;3.tif;mask.tiff;-0.14;left;['left'];0.3407572000287473;1;0.877;3.0572831000899896;20
199;s03bis;A;pre;2;59.88404052541014;[0.016137000056914985, 0.01704890001565218, 0.016618199995718896, 0.01646950002759695];95;3;0.05013660003896803;blank.tiff;mask.tiff;0.14;a;['right'];0.5206267000176013;0;0.702;3.0708087000530213;49
200;s03bis;A;pre;3;59.88404052541014;[0.015945699997246265, 0.01815229991916567, 0.015282700071111321, 0.017468499951064587];30;4;0.05090349994134158;8.tif;mask.tiff;-0.14;right;['right'];0.4169732000445947;1;0.845;3.1007942999713123;72
201;s03bis;A;pre;3;59.88404052541014;[0.016951399971731007, 0.01627420005388558, 0.01702789997216314, 0.01684129994828254];84;3;0.05014339997433126;blank.tiff;mask.tiff;-0.14;a;['right'];0.5701771000167355;0;0.704;3.120167399989441;48
202;s03bis;A;pre;3;59.88404052541014;[0.016362300026230514, 0.016496600001119077, 0.0162750999443233, 0.017081100028008223];2;1;0.0498527999734506;3.tif;mask.tiff;-0.14;left;['left'];0.554858100018464;1;0.821;3.2210075000766665;20
203;s03bis;A;pre;3;59.88404052541014;[0.01738500001374632, 0.016283900011330843, 0.017836500075645745, 0.015021999948658049];61;3;0.04914240003563464;7.tif;mask.tiff;0.14;right;['right'];0.2602435000007972;1;1.449;3.5440284999785945;55
204;s03bis;A;pre;3;59.88404052541014;[0.016345700016245246, 0.017723800032399595, 0.016018599970266223, 0.016500400030054152];29;4;0.05024280003271997;7.tif;mask.tiff;0.14;right;['right'];0.20435800007544458;1;1.56;3.6037113000638783;71
205;s03bis;A;pre;3;59.88404052541014;[0.017304399982094765, 0.016345900017768145, 0.01771409995853901, 0.016555899986997247];34;5;0.0506158999633044;3.tif;mask.tiff;-0.14;left;['left'];0.2782848000060767;1;0.784;2.894684400060214;84
206;s03bis;A;pre;3;59.88404052541014;[0.017569400020875037, 0.016044899937696755, 0.016311599989421666, 0.017685200087726116];47;1;0.05004170001484454;8.tif;mask.tiff;0.14;right;['right'];0.3906853999942541;1;0.766;2.9901528999907896;25
207;s03bis;A;pre;3;59.88404052541014;[0.02333349990658462, 0.008235600078478456, 0.017549199983477592, 0.016754799988120794];40;1;0.04253960005007684;2.tif;mask.tiff;-0.14;left;['left'];0.3768467999761924;1;3.528;5.743665699963458;18
208;s03bis;A;pre;3;59.88404052541014;[0.013966799946501851, 0.017218300024978817, 0.016861299984157085, 0.0168046000180766];83;2;0.0508842000272125;blank.tiff;mask.tiff;0.14;a;['left'];0.6759819000726566;0;10.857;13.375077500008047;33
209;s03bis;A;pre;3;59.88404052541014;[0.01806060003582388, 0.014655400067567825, 0.017083799932152033, 0.015739500056952238];66;4;0.047478700056672096;3.tif;mask.tiff;-0.14;left;['left'];0.2337385000428185;1;0.717;2.78408470004797;68
210;s03bis;A;pre;3;59.88404052541014;[0.016133800032548606, 0.016584399971179664, 0.017166999983601272, 0.016265699989162385];81;1;0.05001709994394332;blank.tiff;mask.tiff;0.14;a;['right'];0.5135876999702305;0;1.795;4.1462262000422925;17
211;s03bis;A;pre;3;59.88404052541014;[0.015784199931658804, 0.016384400078095496, 0.016099600004963577, 0.01725779997650534];75;5;0.04974180005956441;3.tif;mask.tiff;0.14;left;['right'];0.3355226001003757;0;0.754;2.9354376000119373;85
212;s03bis;A;pre;3;59.88404052541014;[0.01615110004786402, 0.016428999952040613, 0.016282200114801526, 0.016706899972632527];58;3;0.049418100039474666;3.tif;mask.tiff;-0.14;left;['left'];0.28028720000293106;1;2.082;4.19592779991217;52
213;s03bis;A;pre;3;59.88404052541014;[0.017680800054222345, 0.015086099971085787, 0.016979499952867627, 0.016929300036281347];82;2;0.04899489996023476;blank.tiff;mask.tiff;-0.14;a;['left'];3.382420300040394;0;1.559;6.781547700054944;32
214;s03bis;A;pre;3;59.88404052541014;[0.017625399981625378, 0.015600200043991208, 0.017211099970154464, 0.016108799958601594];57;3;0.048920099972747266;2.tif;mask.tiff;0.14;left;['left'];0.23654810001607984;1;0.679;2.753081800066866;51
215;s03bis;A;pre;3;59.88404052541014;[0.01672569999936968, 0.01691280002705753, 0.01650629995856434, 0.016055200016126037];51;2;0.049474300001747906;3.tif;mask.tiff;0.14;left;['left'];1.124288900056854;1;0.969;3.924048699904233;37
216;s03bis;A;pre;3;59.88404052541014;[0.01713489997200668, 0.016388899995945394, 0.016577200032770634, 0.017483199946582317];90;1;0.050449299975298345;blank.tiff;mask.tiff;-0.14;a;['left'];1.681114099919796;0;2.601;6.113621500087902;16
217;s03bis;A;pre;3;59.88404052541014;[0.01672900002449751, 0.016560700023546815, 0.016785899992100894, 0.01661489997059107];71;4;0.04996149998623878;8.tif;mask.tiff;0.14;right;['right'];0.49497750005684793;1;1.008;3.34518309996929;73
218;s03bis;A;pre;3;59.88404052541014;[0.016946099931374192, 0.016763400053605437, 0.01631540001835674, 0.016425199923105538];78;5;0.049503999995067716;8.tif;mask.tiff;-0.14;right;['right'];0.36072220001369715;1;0.831;3.027615200029686;88
219;s03bis;A;pre;3;59.88404052541014;[0.016744499909691513, 0.01696620008442551, 0.0159951999085024, 0.017152500106021762];76;5;0.05011390009894967;7.tif;mask.tiff;-0.14;right;['right'];0.9002044000662863;1;0.85;3.5832609001081437;86
220;s03bis;A;pre;3;59.88404052541014;[0.016959600034169853, 0.016270100022666156, 0.017655699979513884, 0.016234999988228083];7;1;0.05016079999040812;8.tif;mask.tiff;0.14;right;['right'];0.4083120001014322;1;0.761;3.009075199952349;25
221;s03bis;A;pre;3;59.88404052541014;[0.016396099934354424, 0.016794900060631335, 0.016791299916803837, 0.01689329999499023];10;2;0.0504794999724254;3.tif;mask.tiff;-0.14;left;['left'];0.32390289998147637;1;0.765;2.9232573999324813;36
222;s03bis;A;pre;3;59.88404052541014;[0.01625320001039654, 0.01734240003861487, 0.017085100058466196, 0.016055599902756512];32;5;0.05048309999983758;2.tif;mask.tiff;-0.14;left;['left'];0.5623352000257;1;0.724;3.1279949999880046;82
223;s03bis;A;pre;3;59.88404052541014;[0.01687100005801767, 0.017328300047665834, 0.016611099941655993, 0.01674390002153814];56;3;0.050683300010859966;2.tif;mask.tiff;-0.14;left;['left'];0.6665418000193313;1;2.021;4.533427799935453;50
224;s03bis;A;pre;3;59.88404052541014;[0.01674840005580336, 0.01610919996164739, 0.016806300031021237, 0.017204999923706055];17;3;0.05012049991637468;2.tif;mask.tiff;0.14;left;['left'];0.21694019995629787;1;0.579;2.633420499972999;51
225;s03bis;A;pre;3;59.88404052541014;[0.016348099918104708, 0.016347800032235682, 0.017676200019195676, 0.015927599975839257];44;1;0.049951600027270615;7.tif;mask.tiff;-0.14;right;['right'];0.2285895999521017;1;0.729;2.7948984999675304;22
226;s03bis;A;pre;3;59.88404052541014;[0.01527690002694726, 0.01723979995585978, 0.01628760003950447, 0.017649799934588373];27;4;0.05117719992995262;3.tif;mask.tiff;0.14;left;['right'];0.14097760000731796;1;1.384;3.3573812000686303;69
227;s03bis;A;pre;3;59.88404052541014;[0.017165299970656633, 0.01597920001950115, 0.016839600051753223, 0.017399300006218255];1;1;0.05021810007747263;2.tif;mask.tiff;0.14;left;['left'];1.5333231999538839;1;11.652;15.033123400062323;19
228;s03bis;A;pre;3;59.88404052541014;[0.016034299973398447, 0.017449800041504204, 0.01635859999805689, 0.016157099977135658];11;2;0.04996550001669675;3.tif;mask.tiff;0.14;left;['left'];0.32244819996412843;1;0.799;2.9552824000129476;37
229;s03bis;A;pre;3;59.88404052541014;[0.016596500063315034, 0.017083199927583337, 0.016449699993245304, 0.016720900079235435];9;2;0.050253800000064075;2.tif;mask.tiff;0.14;left;['left'];0.3740730000426993;0;0.581;2.789877099916339;35
230;s03bis;A;pre;3;59.88404052541014;[0.015403299941681325, 0.016547000035643578, 0.01744720002170652, 0.017387099913321435];43;1;0.051381299970671535;3.tif;mask.tiff;0.14;left;['left'];0.6077038000803441;1;1.029;3.4738688999786973;21
231;s03bis;A;pre;3;59.88404052541014;[0.01605630002450198, 0.017281000036746264, 0.016314599895849824, 0.017144000041298568];55;2;0.050739599973894656;8.tif;mask.tiff;0.14;right;['right'];0.27716400008648634;1;0.825;2.9443496000021696;41
232;s03bis;A;pre;3;59.88404052541014;[0.01753489999100566, 0.01643399999011308, 0.01610080001410097, 0.016293399967253208];49;2;0.04882819997146726;2.tif;mask.tiff;0.14;left;['left'];0.2683571999659762;1;0.608;2.717896300018765;35
233;s03bis;A;pre;3;59.88404052541014;[0.017188500030897558, 0.016115699894726276, 0.01728610007558018, 0.01585630001500249];91;1;0.049258099985308945;blank.tiff;mask.tiff;0.14;a;['right'];0.47656750003807247;0;0.936;3.2599049999844283;17
234;s03bis;A;pre;3;59.88404052541014;[0.01651690003927797, 0.016764799947850406, 0.016857600072398782, 0.016611199942417443];73;5;0.05023359996266663;2.tif;mask.tiff;0.14;left;['left'];0.26932109997142106;1;0.886;3.0034887000219896;83
235;s03bis;A;pre;3;59.88404052541014;[0.017317399964667857, 0.015643100021407008, 0.016969899996183813, 0.016003199969418347];74;5;0.04861619998700917;3.tif;mask.tiff;-0.14;left;['left'];0.2921347999945283;1;1.171;3.3089346999768168;84
236;s03bis;A;pre;3;59.88404052541014;[0.016496000112965703, 0.017749099992215633, 0.015951699926517904, 0.01731590006966144];77;5;0.051016699988394976;7.tif;mask.tiff;0.14;right;['right'];0.9844327000901103;1;8.442;11.267976299975999;87
237;s03bis;A;pre;3;59.88404052541014;[0.01715679990593344, 0.016876900102943182, 0.01639679993968457, 0.01677910005673766];8;2;0.05005280009936541;2.tif;mask.tiff;-0.14;left;['left'];0.26751619996502995;1;0.724;2.8339712999295443;34
238;s03bis;A;pre;3;59.88404052541014;[0.01647809997666627, 0.016570200095884502, 0.016500999918207526, 0.01691280002705753];96;4;0.04998400004114956;blank.tiff;mask.tiff;-0.14;a;['right'];0.37318420002702624;0;0.734;2.9389074000064284;64
239;s03bis;A;pre;3;59.88404052541014;[0.016072100028395653, 0.017669899971224368, 0.01602350000757724, 0.016581200063228607];41;1;0.050274600042030215;2.tif;mask.tiff;0.14;left;['left'];0.3986584999365732;1;0.988;3.2390321000711992;19
240;s03bis;A;pre;3;59.88404052541014;[0.016357199987396598, 0.016621900023892522, 0.016721000079996884, 0.016790499910712242];70;4;0.05013340001460165;8.tif;mask.tiff;-0.14;right;['right'];1.9080189999658614;0;25.08;28.824325800058432;72
241;s03bis;A;pre;3;59.88404052541014;[0.01627969997934997, 0.016305900062434375, 0.01663839991670102, 0.016393300029449165];93;2;0.04933760000858456;blank.tiff;mask.tiff;0.14;a;['right'];0.4487747000530362;0;0.827;3.115840299986303;33
242;s03bis;A;pre;3;59.88404052541014;[0.013136300025507808, 0.016635800013318658, 0.01730229996610433, 0.016809700056910515];89;5;0.0507478000363335;blank.tiff;mask.tiff;0.14;a;['left'];0.2815756000345573;0;1.502;3.614552600076422;81
243;s03bis;A;pre;3;59.88404052541014;[0.017373700044117868, 0.01671250001527369, 0.01645449991337955, 0.017339700018055737];45;1;0.05050669994670898;7.tif;mask.tiff;0.14;right;['right'];0.22663050005212426;1;0.701;2.7595877000130713;23
244;s03bis;A;pre;3;59.88404052541014;[0.017042800085619092, 0.016385699971579015, 0.016516200033947825, 0.01746499992441386];13;2;0.0503668999299407;7.tif;mask.tiff;0.14;right;['right'];0.34715479996521026;1;0.794;2.980291600106284;39
245;s03bis;A;pre;3;59.88404052541014;[0.016898800036869943, 0.016421100008301437, 0.017206799937412143, 0.017016900004819036];50;2;0.050644799950532615;3.tif;mask.tiff;-0.14;left;['left'];0.16953920002561063;1;0.901;2.9031353999162093;36
246;s03bis;A;pre;3;59.88404052541014;[0.01638489996548742, 0.016350600053556263, 0.017034799908287823, 0.016969299991615117];37;5;0.0503546999534592;7.tif;mask.tiff;0.14;right;['right'];0.3340820000739768;1;0.765;2.9341271000448614;87
247;s03bis;A;pre;3;59.88404052541014;[0.017255400074645877, 0.016370999976061285, 0.01680290000513196, 0.01624739996623248];20;3;0.04942129994742572;7.tif;mask.tiff;-0.14;right;['right'];0.28815210005268455;1;0.773;2.905143399955705;54
248;s03bis;A;pre;3;59.88404052541014;[0.016868599923327565, 0.017703199991956353, 0.015623200102709234, 0.01686459989286959];5;1;0.05019099998753518;7.tif;mask.tiff;0.14;right;['right'];0.40131310001015663;1;1.529;3.7685747999930754;23
249;s03bis;A;pre;3;59.88404052541014;[0.017125300015322864, 0.01639849995262921, 0.016748700058087707, 0.0167226999765262];39;5;0.049869899987243116;8.tif;mask.tiff;0.14;right;['right'];0.4239592000376433;1;1.04;3.307425000006333;89
250;s03bis;A;pre;3;59.88404052541014;[0.016966599971055984, 0.015827200026251376, 0.0172560999635607, 0.01658799999859184];79;5;0.049671299988403916;8.tif;mask.tiff;0.14;right;['right'];0.30122519994620234;1;2.445;4.584119700011797;89
251;s03bis;A;pre;3;59.88404052541014;[0.017359800054691732, 0.016496700001880527, 0.01718490000348538, 0.016013599932193756];53;2;0.049695199937559664;7.tif;mask.tiff;0.14;right;['right'];1.6109818000113592;1;5.404;8.86057250003796;39
252;s03bis;A;pre;3;59.88404052541014;[0.014983200002461672, 0.017027399968355894, 0.016330800019204617, 0.01704010006505996];94;3;0.05039830005262047;blank.tiff;mask.tiff;-0.14;a;['left'];0.42356169992126524;0;0.706;2.9731469999533147;48
253;s03bis;A;pre;3;59.88404052541014;[0.013938599964603782, 0.017350699985399842, 0.016671600053086877, 0.016466200002469122];36;5;0.05048850004095584;7.tif;mask.tiff;-0.14;right;['right'];0.2613902000011876;1;0.842;2.9444021999370307;86
254;s03bis;A;pre;3;59.88404052541014;[0.016658400068990886, 0.017772599938325584, 0.016071300022304058, 0.017738200025632977];67;4;0.05158209998626262;3.tif;mask.tiff;0.14;left;['left'];0.5651671000523493;1;1.975;4.380722500034608;69
255;s03bis;A;pre;3;59.88404052541014;[0.01760749996174127, 0.016183899948373437, 0.01648720004595816, 0.017016600002534688];16;3;0.049687699996866286;2.tif;mask.tiff;-0.14;left;['left'];1.391689500072971;1;0.791;4.024564799969085;50
256;s03bis;A;pre;3;59.88404052541014;[0.018875799956731498, 0.015348799992352724, 0.015662700054235756, 0.016826799954287708];85;3;0.04783830000087619;blank.tiff;mask.tiff;0.14;a;['right'];1.1814921000041068;0;1.254;4.281265499885194;49
257;s03bis;A;pre;3;59.88404052541014;[0.016889799968339503, 0.01613790006376803, 0.016689399955794215, 0.01788010005839169];62;3;0.050707400077953935;8.tif;mask.tiff;-0.14;right;['right'];0.9056660999776796;1;2.288;5.038963200058788;56
258;s03bis;A;pre;3;59.88404052541014;[0.016599200083874166, 0.016833300003781915, 0.01640129997394979, 0.01700580003671348];68;4;0.050240400014445186;7.tif;mask.tiff;-0.14;right;['right'];0.19684250000864267;1;0.84;2.879202699987218;70
259;s03bis;A;pre;3;59.88404052541014;[0.01635539997369051, 0.017220400040969253, 0.016272200038656592, 0.0164929999737069];64;4;0.049985600053332746;2.tif;mask.tiff;-0.14;left;['left'];0.37423110008239746;1;1.609;3.8231401999946684;66
260;s03bis;A;pre;3;59.88404052541014;[0.013577600009739399, 0.01646820001769811, 0.01672600000165403, 0.01681930001359433];92;2;0.05001350003294647;blank.tiff;mask.tiff;-0.14;a;['right'];0.592187299975194;0;9.796;12.22556709998753;32
261;s03bis;A;pre;3;59.88404052541014;[0.017078200005926192, 0.01643140008673072, 0.016881000017747283, 0.01595239993184805];22;3;0.04926480003632605;8.tif;mask.tiff;-0.14;right;['right'];1.0925976999569684;1;0.904;3.8427038999507204;56
262;s03bis;A;pre;3;59.88404052541014;[0.016389199998229742, 0.01732149999588728, 0.01592699997127056, 0.017461400013417006];26;4;0.050709899980574846;3.tif;mask.tiff;-0.14;left;['left'];0.6830526000121608;1;3.747;6.26606759999413;68
263;s03bis;A;pre;3;59.88404052541014;[0.01602489990182221, 0.01708750007674098, 0.016682500019669533, 0.01650939998216927];60;3;0.05027940007857978;7.tif;mask.tiff;-0.14;right;['right'];0.3066032000351697;1;0.739;2.8902255999855697;54
264;s03bis;A;pre;3;59.88404052541014;[0.016809499938972294, 0.016978700063191354, 0.016260899952612817, 0.016515200026333332];21;3;0.049754800042137504;7.tif;mask.tiff;0.14;right;['right'];0.24270130007062107;1;0.912;2.9924304999876767;55
265;s03bis;A;pre;3;59.88404052541014;[0.016911800019443035, 0.016335600055754185, 0.017563799978233874, 0.016520599951036274];87;4;0.05041999998502433;blank.tiff;mask.tiff;0.14;a;['right'];1.31589129997883;0;0.947;4.098954300046898;65
266;s03bis;A;pre;3;59.88404052541014;[0.014102500048466027, 0.01706230000127107, 0.016184499952942133, 0.01686800003517419];24;4;0.05011479998938739;2.tif;mask.tiff;-0.14;left;['left'];0.5541551999049261;1;0.729;3.120426499983296;66
267;s03bis;A;pre;3;59.88404052541014;[0.01523860008455813, 0.016870599938556552, 0.01798060000874102, 0.016403199988417327];19;3;0.0512543999357149;3.tif;mask.tiff;0.14;left;['left'];0.25079109997022897;1;0.897;2.9840835999930277;53
268;s03bis;A;pre;3;59.88404052541014;[0.01700900006107986, 0.016483500017784536, 0.016815099981613457, 0.016827299958094954];88;5;0.05012589995749295;blank.tiff;mask.tiff;-0.14;a;['right'];8.818856599973515;0;2.125;12.78579970006831;80
269;s03bis;A;pre;3;59.88404052541014;[0.016926200012676418, 0.01650039991363883, 0.01723690005019307, 0.015931400004774332];28;4;0.049668699968606234;7.tif;mask.tiff;-0.14;right;['right'];0.16739340010099113;1;0.657;2.667905400041491;70
270;s03bis;A;pre;3;59.88404052541014;[0.015870300005190074, 0.018014200031757355, 0.015692599932663143, 0.01750670000910759];42;1;0.05121349997352809;3.tif;mask.tiff;-0.14;left;['left'];0.3827864999184385;1;0.879;3.099354099947959;20
271;s03bis;A;pre;3;59.88404052541014;[0.01675519999116659, 0.01731839997228235, 0.016286900034174323, 0.01722039992455393];46;1;0.050825699931010604;8.tif;mask.tiff;-0.14;right;['right'];0.43321379995904863;1;0.961;3.2328797999070957;24
272;s03bis;A;pre;3;59.88404052541014;[0.017916599987074733, 0.016778599936515093, 0.015547499991953373, 0.01770100009161979];12;2;0.050027100020088255;7.tif;mask.tiff;-0.14;right;['right'];0.4015691999811679;1;0.8;3.0345911000622436;38
273;s03bis;A;pre;3;59.88404052541014;[0.017207000055350363, 0.01596859993878752, 0.016495899995788932, 0.01707280008122325];99;5;0.0495373000157997;blank.tiff;mask.tiff;0.14;a;['left'];0.44018510007299483;0;0.83;3.1063080000458285;81
274;s03bis;A;pre;3;59.88404052541014;[0.01575840008445084, 0.0171822999836877, 0.015613699913956225, 0.01758350001182407];97;4;0.050379499909467995;blank.tiff;mask.tiff;0.14;a;['left'];0.36221970000769943;0;1.131;3.3287559000309557;65
275;s03bis;A;pre;3;59.88404052541014;[0.016197499935515225, 0.01753459998872131, 0.015892300056293607, 0.01703809993341565];15;2;0.05046499997843057;8.tif;mask.tiff;0.14;right;['right'];0.24160219996701926;1;0.681;2.758253199979663;41
276;s03bis;A;pre;3;59.88404052541014;[0.01701319997664541, 0.01647689996752888, 0.017232300015166402, 0.016477999975904822];14;2;0.050187199958600104;8.tif;mask.tiff;-0.14;right;['right'];0.3836361999856308;1;1.041;3.2667574000079185;40
277;s03bis;A;pre;3;59.88404052541014;[0.01717449992429465, 0.016574400011450052, 0.016628800076432526, 0.016686299932189286];52;2;0.049889500020071864;7.tif;mask.tiff;-0.14;right;['right'];2.0636489000171423;1;0.883;4.779786299914122;38
278;s03bis;A;pre;3;59.88404052541014;[0.01634039997588843, 0.016149899922311306, 0.016869000042788684, 0.017077399999834597];95;3;0.05009629996493459;blank.tiff;mask.tiff;0.14;a;['right'];0.26575190003495663;0;1.427;3.5320038000354543;49
279;s03bis;A;pre;3;59.88404052541014;[0.017105800099670887, 0.01581159990746528, 0.01770690002012998, 0.01671710005030036];18;3;0.05023559997789562;3.tif;mask.tiff;-0.14;left;['left'];0.3361129000550136;1;0.606;2.7853009999962524;52
280;s03bis;A;pre;3;59.88404052541014;[0.01704320008866489, 0.016728200018405914, 0.015759199974127114, 0.017395799979567528];4;1;0.049883199972100556;7.tif;mask.tiff;-0.14;right;['right'];0.2999044000171125;1;0.953;3.100069599924609;22
281;s03bis;A;pre;3;59.88404052541014;[0.01675959990825504, 0.01643530000001192, 0.01628030010033399, 0.01668889995198697];65;4;0.04940450005233288;2.tif;mask.tiff;0.14;left;['left'];0.5967374999308959;1;6.105;8.547128599951975;67
282;s03bis;A;pre;3;59.88404052541014;[0.015988699975423515, 0.017205400043167174, 0.016181799932383, 0.016858300077728927];0;1;0.0502455000532791;2.tif;mask.tiff;-0.14;left;['left'];0.3317234000423923;1;0.843;3.014474800089374;18
283;s03bis;A;pre;3;59.88404052541014;[0.016218799981288612, 0.0171198999742046, 0.017228799988515675, 0.01592160004656762];48;2;0.050270300009287894;2.tif;mask.tiff;-0.14;left;['left'];0.356530399993062;1;0.846;3.0390717000700533;34
284;s03bis;A;pre;3;59.88404052541014;[0.01699679996818304, 0.016609200043603778, 0.015760799986310303, 0.01730519998818636];72;5;0.04967520001810044;2.tif;mask.tiff;-0.14;left;['left'];7.722224100027233;1;2.873;12.440917100058869;82
285;s03bis;A;pre;3;59.88404052541014;[0.017396499984897673, 0.01647990010678768, 0.017006499925628304, 0.016629799967631698];6;1;0.050116200000047684;8.tif;mask.tiff;-0.14;right;['right'];0.3351782000390813;1;0.841;3.017864300054498;24
286;s03bis;A;pre;3;59.88404052541014;[0.017143300035968423, 0.015494999941438437, 0.016550200060009956, 0.01789040002040565];98;5;0.04993560002185404;blank.tiff;mask.tiff;-0.14;a;['right'];0.36579249997157604;0;2.046;4.249254600028507;80
287;s03bis;A;pre;3;59.88404052541014;[0.016095200087875128, 0.017169300001114607, 0.016098299995064735, 0.016976999933831394];59;3;0.050244599930010736;3.tif;mask.tiff;0.14;left;['left'];0.2319611000129953;1;1.042;3.1148141999728978;53
288;s03bis;A;pre;3;59.88404052541014;[0.01498049998190254, 0.016157099977135658, 0.01638080005068332, 0.017553500016219914];3;1;0.05009140004403889;3.tif;mask.tiff;0.14;left;['left'];0.2609705999493599;1;0.861;2.961113400058821;21
289;s03bis;A;pre;3;59.88404052541014;[0.017684699967503548, 0.016317300032824278, 0.016829999978654087, 0.016481600003317];35;5;0.04962890001479536;3.tif;mask.tiff;0.14;left;['right'];0.3859036999056116;0;11.616;13.829202999942936;85
290;s03bis;A;pre;3;59.88404052541014;[0.015911499969661236, 0.017387300031259656, 0.016698299907147884, 0.01585200009867549];38;5;0.04993760003708303;8.tif;mask.tiff;-0.14;right;['right'];0.3148195999674499;1;0.636;2.7799809999996796;88
291;s03bis;A;pre;3;59.88404052541014;[0.016495799995027483, 0.017013999982737005, 0.016903999960049987, 0.015859600040130317];86;4;0.04977759998291731;blank.tiff;mask.tiff;-0.14;a;['left'];1.1019376999465749;0;0.565;3.5029149999609217;64
292;s03bis;A;pre;3;59.88404052541014;[0.016155599965713918, 0.01673780009150505, 0.01783379993867129, 0.016388399992138147];54;2;0.05096000002231449;8.tif;mask.tiff;-0.14;right;['right'];0.35454139998182654;1;0.827;3.021083200001158;40
293;s03bis;A;pre;3;59.88404052541014;[0.016626799944788218, 0.017345000058412552, 0.016206400003284216, 0.016304499935358763];23;3;0.04985589999705553;8.tif;mask.tiff;0.14;right;['right'];0.2574107999680564;1;0.703;2.80684299999848;57
294;s03bis;A;pre;3;59.88404052541014;[0.016424600034952164, 0.016475599957630038, 0.017036000033840537, 0.01651260000653565];63;3;0.050024199998006225;8.tif;mask.tiff;0.14;right;['left'];0.2100928999716416;1;1.331;3.376410099910572;57
295;s03bis;A;pre;3;59.88404052541014;[0.013278899947181344, 0.017276099999435246, 0.016197500051930547, 0.016308599966578186];25;4;0.04978220001794398;2.tif;mask.tiff;0.14;left;['left'];0.3024527000961825;1;0.714;2.8504566999617964;67
296;s03bis;A;pre;3;59.88404052541014;[0.016744800028391182, 0.016565199941396713, 0.01633760007098317, 0.017357599921524525];31;4;0.05026039993390441;8.tif;mask.tiff;0.14;right;['right'];0.5074830999365076;0;2.795;5.140216500032693;73
297;s03bis;A;pre;3;59.88404052541014;[0.015206000069156289, 0.0177350000012666, 0.01563999999780208, 0.017085399944335222];69;4;0.0504603999434039;7.tif;mask.tiff;0.14;right;['right'];0.28089700010605156;1;0.966;3.081148099969141;71
298;s03bis;A;pre;3;59.88404052541014;[0.015561300097033381, 0.017354699899442494, 0.016568600083701313, 0.015982899931259453];33;5;0.04990619991440326;2.tif;mask.tiff;0.14;left;['left'];0.27031309995800257;1;0.581;2.687350400025025;83
299;s03bis;A;pre;3;59.88404052541014;[0.016972900019027293, 0.016983999987132847, 0.016094400081783533, 0.017211099970154464];80;1;0.050289500039070845;blank.tiff;mask.tiff;-0.14;a;['right'];0.2747076000086963;0;4.255;6.374392499914393;16
300;s03bis;A;pre;4;59.88404052541014;[0.016709999996237457, 0.017093800008296967, 0.016091100056655705, 0.01723110000602901];22;3;0.05041600007098168;8.tif;mask.tiff;-0.14;right;['right'];0.36331399995833635;1;0.712;2.913658699952066;56
301;s03bis;A;pre;4;59.88404052541014;[0.01413879997562617, 0.01686189998872578, 0.01578380004502833, 0.017487799981608987];97;4;0.0501335000153631;blank.tiff;mask.tiff;0.14;a;['right'];0.47607859992422163;0;0.624;2.9424268999136984;65
302;s03bis;A;pre;4;59.88404052541014;[0.016206900007091463, 0.016929400037042797, 0.016078699962235987, 0.01693210005760193];31;4;0.04994020005688071;8.tif;mask.tiff;0.14;right;['right'];0.24472509999759495;1;0.742;2.828185599995777;73
303;s03bis;A;pre;4;59.88404052541014;[0.017669999971985817, 0.015848899958655238, 0.018077600048854947, 0.015508999931626022];19;3;0.04943549993913621;3.tif;mask.tiff;0.14;left;['left'];0.6486627999693155;1;1.066;3.5642359000630677;53
304;s03bis;A;pre;4;59.88404052541014;[0.01575199991930276, 0.0161232000682503, 0.01779109996277839, 0.016101200017146766];27;4;0.050015500048175454;3.tif;mask.tiff;0.14;left;['left'];0.25929509999696165;1;0.688;2.7927237999392673;69
305;s03bis;A;pre;4;59.88404052541014;[0.01824150001630187, 0.016040800022892654, 0.016435099998489022, 0.017199599999003112];17;3;0.04967550002038479;2.tif;mask.tiff;0.14;left;['left'];0.6426756998989731;0;1.764;4.242235600017011;51
306;s03bis;A;pre;4;59.88404052541014;[0.01567669992800802, 0.016949100070632994, 0.01639549992978573, 0.017636700067669153];81;1;0.050981300068087876;blank.tiff;mask.tiff;0.14;a;['left'];0.32734469999559224;0;0.657;2.8275902998866513;17
307;s03bis;A;pre;4;59.88404052541014;[0.01732280000578612, 0.015574699966236949, 0.01699989999178797, 0.025115100084804];8;2;0.05768970004282892;2.tif;mask.tiff;-0.14;left;['left'];0.16618300008121878;1;1.333;3.3330335000064224;34
308;s03bis;A;pre;4;59.88404052541014;[0.01749030000064522, 0.016582000069320202, 0.016484999912790954, 0.01690690009854734];92;2;0.049973900080658495;blank.tiff;mask.tiff;-0.14;a;['right'];0.772886999999173;1;0.894;3.506045800051652;32
309;s03bis;A;pre;4;59.88404052541014;[0.015258300001733005, 0.016852299915626645, 0.01643720001447946, 0.016486600041389465];7;1;0.04977609997149557;8.tif;mask.tiff;0.14;right;['right'];0.2594498998951167;1;0.677;2.7804626000579447;25
310;s03bis;A;pre;4;59.88404052541014;[0.017069699941202998, 0.015889100031927228, 0.016102900030091405, 0.01737179991323501];6;1;0.04936379997525364;8.tif;mask.tiff;-0.14;right;['right'];0.7453999000135809;1;4.248;6.82777050009463;24
311;s03bis;A;pre;4;59.88404052541014;[0.016345400013960898, 0.01740889996290207, 0.015988900093361735, 0.017545499955303967];9;2;0.05094330001156777;2.tif;mask.tiff;0.14;left;['left'];0.7231850000098348;1;0.813;3.373570799943991;35
312;s03bis;A;pre;4;59.88404052541014;[0.01681749999988824, 0.016288000042550266, 0.016386199975386262, 0.0164698000298813];64;4;0.049144000047817826;2.tif;mask.tiff;-0.14;left;['right'];1.54607209993992;1;1.327;4.712528000003658;66
313;s03bis;A;pre;4;59.88404052541014;[0.01701009995304048, 0.016552799963392317, 0.016999599989503622, 0.01611700002104044];70;4;0.04966939997393638;8.tif;mask.tiff;-0.14;right;['left'];0.7305411000270396;0;1.664;4.237741700024344;72
314;s03bis;A;pre;4;59.88404052541014;[0.017222000053152442, 0.01621469995006919, 0.016643599956296384, 0.01635859999805689];0;1;0.04921689990442246;2.tif;mask.tiff;-0.14;left;['right'];0.35207549994811416;1;0.93;3.1178517000516877;18
315;s03bis;A;pre;4;59.88404052541014;[0.016679199994541705, 0.017476200009696186, 0.01624429994262755, 0.01583849999587983];12;2;0.049558999948203564;7.tif;mask.tiff;-0.14;right;['right'];0.35019960009958595;1;1.114;3.2994079999625683;38
316;s03bis;A;pre;4;59.88404052541014;[0.016669200034812093, 0.01697620004415512, 0.01590639993082732, 0.017364699975587428];60;3;0.05024729995056987;7.tif;mask.tiff;-0.14;right;['right'];0.28905790008138865;1;0.591;2.7217537000542507;54
317;s03bis;A;pre;4;59.88404052541014;[0.016786899999715388, 0.016866200021468103, 0.016304599936120212, 0.016525399987585843];11;2;0.04969619994517416;3.tif;mask.tiff;0.14;left;['left'];1.667317199986428;0;7.264;10.767148000071757;37
318;s03bis;A;pre;4;59.88404052541014;[0.01706959994044155, 0.016016900073736906, 0.016425599926151335, 0.016393100027926266];68;4;0.04883560002781451;7.tif;mask.tiff;-0.14;right;['right'];0.29451369994785637;1;0.856;2.994424300035462;70
319;s03bis;A;pre;4;59.88404052541014;[0.017000799998641014, 0.016582799958996475, 0.017001100000925362, 0.017020300030708313];44;1;0.05060419999063015;7.tif;mask.tiff;-0.14;right;['right'];0.267353400005959;1;0.806;2.917542100069113;22
320;s03bis;A;pre;4;59.88404052541014;[0.016685199923813343, 0.016859100083820522, 0.01586959999985993, 0.017161699943244457];3;1;0.04989040002692491;3.tif;mask.tiff;0.14;left;['right'];0.9805606999434531;0;7.301;10.130744700087234;21
321;s03bis;A;pre;4;59.88404052541014;[0.015679400064982474, 0.016504299943335354, 0.017416700022295117, 0.01626960001885891];30;4;0.05019059998448938;8.tif;mask.tiff;-0.14;right;['right'];0.3256323999958113;1;0.805;2.975281000020914;72
322;s03bis;A;pre;4;59.88404052541014;[0.01607120002154261, 0.017749299993738532, 0.01622069999575615, 0.016901399940252304];83;2;0.050871399929746985;blank.tiff;mask.tiff;0.14;a;['left'];0.2483453000895679;1;0.618;2.698856099974364;33
323;s03bis;A;pre;4;59.88404052541014;[0.016698599909432232, 0.01661490008700639, 0.016137899947352707, 0.01692439999897033];37;5;0.04967720003332943;7.tif;mask.tiff;0.14;right;['right'];0.5179344000061974;1;0.824;3.184715999988839;87
324;s03bis;A;pre;4;59.88404052541014;[0.014835600042715669, 0.017036500037647784, 0.016286499914713204, 0.015998000046238303];25;4;0.04932099999859929;2.tif;mask.tiff;0.14;left;['left'];0.23935550008900464;1;0.814;2.898680799989961;67
325;s03bis;A;pre;4;59.88404052541014;[0.016947100055404007, 0.016502299928106368, 0.016352100064978004, 0.016853399924002588];84;3;0.04970779991708696;blank.tiff;mask.tiff;-0.14;a;['right'];2.2086582999909297;0;13.78;17.82463310007006;48
326;s03bis;A;pre;4;59.88404052541014;[0.01620600000023842, 0.01669070008210838, 0.016336299944669008, 0.017275599995628];85;3;0.050302600022405386;blank.tiff;mask.tiff;0.14;a;['right'];0.47966050007380545;0;0.684;2.9957656000042334;49
327;s03bis;A;pre;4;59.88404052541014;[0.01678369997534901, 0.016113099991343915, 0.01795559993479401, 0.015508900047279894];39;5;0.04957759997341782;8.tif;mask.tiff;0.14;right;['right'];0.2416610000655055;1;0.65;2.7239847000455484;89
328;s03bis;A;pre;4;59.88404052541014;[0.016180099919438362, 0.016774100018665195, 0.01640910003334284, 0.01678499998524785];36;5;0.04996820003725588;7.tif;mask.tiff;-0.14;right;['right'];0.3074851999990642;1;0.753;2.907188899931498;86
329;s03bis;A;pre;4;59.88404052541014;[0.016572400112636387, 0.016231899964623153, 0.016935599967837334, 0.016698000021278858];78;5;0.049865499953739345;8.tif;mask.tiff;-0.14;right;['right'];0.3166741000022739;1;0.659;2.816722600022331;88
330;s03bis;A;pre;4;59.88404052541014;[0.017049800022505224, 0.01597309997305274, 0.016971200006082654, 0.01688010001089424];86;4;0.04982439999002963;blank.tiff;mask.tiff;-0.14;a;['right'];0.5614046999253333;0;3.34;5.744595999945886;64
331;s03bis;A;pre;4;59.88404052541014;[0.016655700048431754, 0.017062600003555417, 0.01596460002474487, 0.016677399980835617];91;1;0.0497046000091359;blank.tiff;mask.tiff;0.14;a;['left'];0.325224700034596;0;1.179;3.342116800020449;17
332;s03bis;A;pre;4;59.88404052541014;[0.01682189991697669, 0.016003600088879466, 0.0172483999049291, 0.016667600022628903];53;2;0.04991960001643747;7.tif;mask.tiff;0.14;right;['right'];0.8287777999648824;1;2.149;4.811848999932408;39
333;s03bis;A;pre;4;59.88404052541014;[0.014615499996580184, 0.01647120004054159, 0.01719529996626079, 0.016341299982741475];87;4;0.050007799989543855;blank.tiff;mask.tiff;0.14;a;['left'];0.5777959999395534;0;11.454;13.87740430003032;65
334;s03bis;A;pre;4;59.88404052541014;[0.015313600073568523, 0.016055300016887486, 0.016768099972978234, 0.016839099931530654];21;3;0.049662499921396375;7.tif;mask.tiff;0.14;right;['right'];0.23171660001389682;1;0.699;2.764746999950148;55
335;s03bis;A;pre;4;59.88404052541014;[0.015668499981984496, 0.01787390001118183, 0.016332600032910705, 0.0158662999747321];18;3;0.05007280001882464;3.tif;mask.tiff;-0.14;left;['left'];0.4657309999456629;1;0.71;3.015263000037521;52
336;s03bis;A;pre;4;59.88404052541014;[0.017347400076687336, 0.016169299953617156, 0.016598599962890148, 0.01688740006648004];42;1;0.049655299982987344;3.tif;mask.tiff;-0.14;left;['left'];0.25408109999261796;1;0.657;2.7535275999689475;20
337;s03bis;A;pre;4;59.88404052541014;[0.016917999950237572, 0.017693900037556887, 0.015342499944381416, 0.01690660009626299];80;1;0.049943000078201294;blank.tiff;mask.tiff;-0.14;a;['left'];0.4046157000120729;0;1.178;3.420580300036818;16
338;s03bis;A;pre;4;59.88404052541014;[0.01733950001653284, 0.015897299977950752, 0.01731710007879883, 0.016093499958515167];99;5;0.04930790001526475;blank.tiff;mask.tiff;0.14;a;['left'];0.7310130000114441;0;4.644;7.214075600029901;81
339;s03bis;A;pre;4;59.88404052541014;[0.017293999902904034, 0.016468700021505356, 0.016541299992240965, 0.016215800074860454];69;4;0.049225800088606775;7.tif;mask.tiff;0.14;right;['right'];0.6315032000420615;1;0.765;3.2316740000387654;71
340;s03bis;A;pre;4;59.88404052541014;[0.016962600057013333, 0.016277899965643883, 0.016095599974505603, 0.017635400057770312];95;3;0.0500088999979198;blank.tiff;mask.tiff;0.14;a;['left'];0.397795099997893;0;1.245;3.481423299992457;49
341;s03bis;A;pre;4;59.88404052541014;[0.015680300071835518, 0.0170887999702245, 0.01598939998075366, 0.017205400043167174];38;5;0.050283599994145334;8.tif;mask.tiff;-0.14;right;['right'];1.7418931999709457;1;1.038;4.624874199973419;88
342;s03bis;A;pre;4;59.88404052541014;[0.016172799980267882, 0.016916100052185357, 0.016590700019150972, 0.016419399995356798];93;2;0.04992620006669313;blank.tiff;mask.tiff;0.14;a;['left'];0.3828814000589773;0;1.423;3.648556899977848;33
343;s03bis;A;pre;4;59.88404052541014;[0.016433199984021485, 0.01629469997715205, 0.016979999956674874, 0.01622970006428659];1;1;0.04950439999811351;2.tif;mask.tiff;0.14;left;['left'];0.19869160000234842;1;1.195;3.2313858999405056;19
344;s03bis;A;pre;4;59.88404052541014;[0.01699420006480068, 0.016391800018027425, 0.016801999998278916, 0.016729399911127985];33;5;0.049923199927434325;2.tif;mask.tiff;0.14;left;['right'];0.5941522000357509;1;0.739;3.17721899994649;83
345;s03bis;A;pre;4;59.88404052541014;[0.0174355999333784, 0.016442300053313375, 0.016580799943767488, 0.017794799990952015];41;1;0.05081789998803288;2.tif;mask.tiff;0.14;left;['left'];0.9985770999919623;0;1.129;3.9650768999708816;19
346;s03bis;A;pre;4;59.88404052541014;[0.01635409996379167, 0.01736599998548627, 0.016029200050979853, 0.01654779992531985];46;1;0.04994299996178597;8.tif;mask.tiff;-0.14;right;['right'];0.4292430999921635;0;0.815;3.07949589996133;24
347;s03bis;A;pre;4;59.88404052541014;[0.016106300055980682, 0.01663540001027286, 0.017150199972093105, 0.01673479995224625];20;3;0.050520399934612215;7.tif;mask.tiff;-0.14;right;['left'];4.048472800059244;1;1.807;7.698097999906167;54
348;s03bis;A;pre;4;59.88404052541014;[0.015393299981951714, 0.01669329998549074, 0.027117199962958694, 0.006146700005047023];90;1;0.049957199953496456;blank.tiff;mask.tiff;-0.14;a;['right'];0.3939963000593707;0;0.64;2.878011300112121;16
349;s03bis;A;pre;4;59.88404052541014;[0.01601599995046854, 0.01682670006994158, 0.01675799989607185, 0.016492300084792078];13;2;0.05007700005080551;7.tif;mask.tiff;0.14;right;['right'];0.4040873000631109;1;0.77;3.0200867999810725;39
350;s03bis;A;pre;4;59.88404052541014;[0.01699539995752275, 0.0166486999951303, 0.01680999994277954, 0.015954500064253807];79;5;0.04941320000216365;8.tif;mask.tiff;0.14;right;['right'];0.35518029995728284;1;0.862;3.054361499962397;89
351;s03bis;A;pre;4;59.88404052541014;[0.016425299923866987, 0.017446700017899275, 0.0162634999724105, 0.017049900023266673];88;5;0.05076010001357645;blank.tiff;mask.tiff;-0.14;a;['left'];0.8328817000146955;0;11.301;13.981754699954763;80
352;s03bis;A;pre;4;59.88404052541014;[0.017217500018887222, 0.016563300043344498, 0.01750929991248995, 0.0165438000112772];77;5;0.05061639996711165;7.tif;mask.tiff;0.14;right;['right'];0.2877734999638051;1;0.796;2.9205348999239504;87
353;s03bis;A;pre;4;59.88404052541014;[0.016104199923574924, 0.017291500000283122, 0.01673779997508973, 0.016215600073337555];40;1;0.050244900048710406;2.tif;mask.tiff;-0.14;left;['left'];0.6936674000462517;1;0.973;3.509351999964565;18
354;s03bis;A;pre;4;59.88404052541014;[0.016439300030469894, 0.01672910002525896, 0.016850900021381676, 0.016120299929752946];98;5;0.04970029997639358;blank.tiff;mask.tiff;-0.14;a;['left'];0.209139300044626;1;1.234;3.2914725000737235;80
355;s03bis;A;pre;4;59.88404052541014;[0.016055399901233613, 0.017416600021533668, 0.01646529999561608, 0.016775700030848384];5;1;0.05065760004799813;7.tif;mask.tiff;0.14;right;['right'];2.9124220999656245;1;0.853;5.612566399970092;23
356;s03bis;A;pre;4;59.88404052541014;[0.016797199961729348, 0.016475699958391488, 0.01678530010394752, 0.016847599996253848];66;4;0.050108600058592856;3.tif;mask.tiff;-0.14;left;['right'];0.2883620000211522;0;0.692;2.821949500008486;68
357;s03bis;A;pre;4;59.88404052541014;[0.010980000020936131, 0.015806599985808134, 0.017374300048686564, 0.016703899949789047];59;3;0.049884799984283745;3.tif;mask.tiff;0.14;left;['left'];0.29993709991686046;1;0.79;2.950773200020194;53
358;s03bis;A;pre;4;59.88404052541014;[0.017089799977838993, 0.016138200066052377, 0.017193099949508905, 0.017215100000612438];75;5;0.05054640001617372;3.tif;mask.tiff;0.14;left;['left'];0.8577858000062406;1;2.396;5.089744500000961;85
359;s03bis;A;pre;4;59.88404052541014;[0.016283600009046495, 0.01649920002091676, 0.016995899961329997, 0.017169099999591708];24;4;0.050664199981838465;2.tif;mask.tiff;-0.14;left;['right'];0.46837140002753586;1;2.684;5.0015353000489995;66
360;s03bis;A;pre;4;59.88404052541014;[0.01643399999011308, 0.017422499950043857, 0.01624140003696084, 0.016071500023826957];73;5;0.049735400010831654;2.tif;mask.tiff;0.14;left;['left'];0.2771496999775991;1;0.696;2.8106035999953747;83
361;s03bis;A;pre;4;59.88404052541014;[0.016484399908222258, 0.01591519999783486, 0.016907100100070238, 0.017544699949212372];45;1;0.05036700004711747;7.tif;mask.tiff;0.14;right;['right'];0.2797600000631064;1;0.741;2.8630121999885887;23
362;s03bis;A;pre;4;59.88404052541014;[0.016425800044089556, 0.017336599994450808, 0.015927799977362156, 0.016559300012886524];63;3;0.04982369998469949;8.tif;mask.tiff;0.14;right;['right'];0.25318240001797676;1;1.016;3.1036860999884084;57
363;s03bis;A;pre;4;59.88404052541014;[0.014596899971365929, 0.017077700002118945, 0.016566899954341352, 0.01593920006416738];51;2;0.04958380002062768;3.tif;mask.tiff;0.14;left;['left'];0.6948111000237986;0;8.255;10.79589379997924;37
364;s03bis;A;pre;4;59.88404052541014;[0.017023100052028894, 0.016671400051563978, 0.01679979998152703, 0.01604709995444864];32;5;0.04951829998753965;2.tif;mask.tiff;-0.14;left;['left'];1.1102343000238761;1;0.778;3.7267448999918997;82
365;s03bis;A;pre;4;59.88404052541014;[0.016247200081124902, 0.017271899967454374, 0.016616699984297156, 0.016285100020468235];2;1;0.050173699972219765;3.tif;mask.tiff;-0.14;left;['left'];0.5799116999842227;1;0.755;3.180665099993348;20
366;s03bis;A;pre;4;59.88404052541014;[0.017190900049172342, 0.016760599915869534, 0.01634970004670322, 0.01625640003476292];57;3;0.04936669999733567;2.tif;mask.tiff;0.14;left;['left'];0.29843480000272393;1;0.872;3.0147933999542147;51
367;s03bis;A;pre;4;59.88404052541014;[0.016826899955049157, 0.015862999949604273, 0.01730960002169013, 0.016694999998435378];76;5;0.04986759996972978;7.tif;mask.tiff;-0.14;right;['left'];0.2559772999957204;0;3.223;5.321427600109018;86
368;s03bis;A;pre;4;59.88404052541014;[0.01707389997318387, 0.01688890007790178, 0.016670099925249815, 0.016919299960136414];62;3;0.05047829996328801;8.tif;mask.tiff;-0.14;right;['right'];0.3215458000777289;1;0.589;2.757102800067514;56
369;s03bis;A;pre;4;59.88404052541014;[0.01620710000861436, 0.01693639997392893, 0.016454200027510524, 0.01680129999294877];47;1;0.05019189999438822;8.tif;mask.tiff;0.14;right;['left'];0.2688940999796614;1;0.903;3.017810699995607;25
370;s03bis;A;pre;4;59.88404052541014;[0.016765399952419102, 0.01679860008880496, 0.019906300003640354, 0.013298199977725744];4;1;0.05000310007017106;7.tif;mask.tiff;-0.14;right;['right'];0.5386040000012144;1;0.939;3.3216739000054076;22
371;s03bis;A;pre;4;59.88404052541014;[0.016939799999818206, 0.017064700019545853, 0.01722230005543679, 0.015768099925480783];15;2;0.050055100000463426;8.tif;mask.tiff;0.14;right;['left'];0.4219996000174433;0;10.792;13.05437179992441;41
372;s03bis;A;pre;4;59.88404052541014;[0.016412299941293895, 0.016819600015878677, 0.01632290007546544, 0.01655820000451058];96;4;0.0497007000958547;blank.tiff;mask.tiff;-0.14;a;['left'];0.44978000002447516;0;4.697;6.982520500081591;64
373;s03bis;A;pre;4;59.88404052541014;[0.017123199999332428, 0.016975100035779178, 0.01626219996251166, 0.017003400018438697];55;2;0.050240700016729534;8.tif;mask.tiff;0.14;right;['right'];0.3359482999658212;1;0.869;3.035269799991511;41
374;s03bis;A;pre;4;59.88404052541014;[0.01697320002131164, 0.01670969999395311, 0.01681180007290095, 0.016828899970278144];82;2;0.050350400037132204;blank.tiff;mask.tiff;-0.14;a;['right'];0.4980715001001954;0;0.657;3.5148365000495687;32
375;s03bis;A;pre;4;59.88404052541014;[0.016951499972492456, 0.017179599963128567, 0.016418299986980855, 0.02551629999652505];94;3;0.05911419994663447;blank.tiff;mask.tiff;-0.14;a;['right'];0.4974464999977499;0;3.005;5.347891699988395;48
376;s03bis;A;pre;4;59.88404052541014;[0.01758820004761219, 0.01670789998024702, 0.016015099943615496, 0.016956000006757677];52;2;0.049678999930620193;7.tif;mask.tiff;-0.14;right;['right'];0.3596426999429241;1;0.672;2.876508100074716;38
377;s03bis;A;pre;4;59.88404052541014;[0.016816699993796647, 0.016482200007885695, 0.016131100011989474, 0.016889400081709027];43;1;0.049502700101584196;3.tif;mask.tiff;0.14;left;['left'];0.33442910003941506;1;0.702;2.884808999951929;21
378;s03bis;A;pre;4;59.88404052541014;[0.015535700018517673, 0.017708499915897846, 0.01613050000742078, 0.016513700014911592];26;4;0.050352699938230217;3.tif;mask.tiff;-0.14;left;['left'];0.35983309999573976;1;0.823;3.0267955999588594;68
379;s03bis;A;pre;4;59.88404052541014;[0.01680450001731515, 0.01664409996010363, 0.016773600014857948, 0.016723699984140694];74;5;0.05014139995910227;3.tif;mask.tiff;-0.14;left;['left'];0.46087700000498444;1;1.349;3.6439625000348315;84
380;s03bis;A;pre;4;59.88404052541014;[0.016388899995945394, 0.0173924999544397, 0.016517900046892464, 0.015854099998250604];14;2;0.04976449999958277;8.tif;mask.tiff;-0.14;right;['right'];0.22319619997870177;1;0.694;2.7571798999560997;40
381;s03bis;A;pre;4;59.88404052541014;[0.016069100005552173, 0.017069899942725897, 0.0173804999794811, 0.01593039999715984];23;3;0.05038079991936684;8.tif;mask.tiff;0.14;right;['right'];0.4839115999639034;0;0.909;3.2331279000500217;57
382;s03bis;A;pre;4;59.88404052541014;[0.016223000013269484, 0.017160299932584167, 0.01602059998549521, 0.017056900076568127];71;4;0.0502377999946475;8.tif;mask.tiff;0.14;right;['left'];0.3329080999828875;0;1.095;3.26546710007824;73
383;s03bis;A;pre;4;59.88404052541014;[0.016883499920368195, 0.016565600060857832, 0.016541599994525313, 0.01637329999357462];48;2;0.049480500048957765;2.tif;mask.tiff;-0.14;left;['left'];0.2842629998922348;1;0.687;2.81736099999398;34
384;s03bis;A;pre;4;59.88404052541014;[0.015713100088760257, 0.01729749992955476, 0.01610220002476126, 0.01721479999832809];34;5;0.05061449995264411;3.tif;mask.tiff;-0.14;left;['left'];0.21851430006790906;1;0.756;2.8181777000427246;84
385;s03bis;A;pre;4;59.88404052541014;[0.0163567999843508, 0.017942699952982366, 0.015543900080956519, 0.017179799964651465];67;4;0.05066639999859035;3.tif;mask.tiff;0.14;left;['left'];0.15957710007205606;1;1.693;3.6923736999742687;69
386;s03bis;A;pre;4;59.88404052541014;[0.016221400001086295, 0.01721909991465509, 0.017049800022505224, 0.016496600001119077];61;3;0.05076549993827939;7.tif;mask.tiff;0.14;right;['right'];0.1886481000110507;1;0.723;2.755196800106205;55
387;s03bis;A;pre;4;59.88404052541014;[0.017289799987338483, 0.016829899977892637, 0.01627410005312413, 0.016942900023423135];16;3;0.0500469000544399;2.tif;mask.tiff;-0.14;left;['left'];0.32298930000979453;1;1.049;3.205976100056432;50
388;s03bis;A;pre;4;59.88404052541014;[0.017713400069624186, 0.015380899887531996, 0.01656920008827001, 0.016532399924471974];58;3;0.04848249990027398;3.tif;mask.tiff;-0.14;left;['left'];0.29272689996287227;1;1.055;3.1918925000354648;52
389;s03bis;A;pre;4;59.88404052541014;[0.016722199972718954, 0.017228499986231327, 0.016950000077486038, 0.015979999909177423];50;2;0.05015849997289479;3.tif;mask.tiff;-0.14;left;['right'];0.3321615000022575;0;3.929;6.09915580006782;36
390;s03bis;A;pre;4;59.88404052541014;[0.016073100036010146, 0.016551299951970577, 0.01787400001194328, 0.016123599954880774];35;5;0.05054889991879463;3.tif;mask.tiff;0.14;left;['left'];0.9130478999577463;1;0.714;3.4645084999501705;85
391;s03bis;A;pre;4;59.88404052541014;[0.01700290001463145, 0.016527800005860627, 0.016209500026889145, 0.017446400015614927];29;4;0.0501837000483647;7.tif;mask.tiff;0.14;right;['right'];0.2647094000130892;1;0.774;2.8811449999921024;71
392;s03bis;A;pre;4;59.88404052541014;[0.015521600027568638, 0.017418300034478307, 0.015931999892927706, 0.017630100017413497];56;3;0.05098039994481951;2.tif;mask.tiff;-0.14;left;['left'];0.21053599996957928;1;0.689;2.7445691000903025;50
393;s03bis;A;pre;4;59.88404052541014;[0.016434999997727573, 0.017815600032918155, 0.016117700026370585, 0.017406599945388734];49;2;0.051339900004677474;2.tif;mask.tiff;0.14;left;['left'];0.19826729991473258;1;2.145;4.180810699937865;35
394;s03bis;A;pre;4;59.88404052541014;[0.016410900047048926, 0.016565299942158163, 0.016775100026279688, 0.0165627000387758];28;4;0.04990310000721365;7.tif;mask.tiff;-0.14;right;['right'];0.4158813999965787;1;0.765;3.0155996000394225;70
395;s03bis;A;pre;4;59.88404052541014;[0.017886699992232025, 0.01712450000923127, 0.01627420005388558, 0.01689579989761114];72;5;0.05029449996072799;2.tif;mask.tiff;-0.14;left;['left'];0.580631299992092;0;1.146;3.7073341999202967;82
396;s03bis;A;pre;4;59.88404052541014;[0.014878800022415817, 0.01678339997306466, 0.016358699998818338, 0.02164599997922778];65;4;0.05478809995111078;2.tif;mask.tiff;0.14;left;['left'];0.41929109999909997;0;1.17;3.527721400023438;67
397;s03bis;A;pre;4;59.88404052541014;[0.019617700017988682, 0.016477799974381924, 0.01654520002193749, 0.016668800031766295];10;2;0.04969180002808571;3.tif;mask.tiff;-0.14;left;['left'];0.3377720001153648;0;1.086;3.4947903000283986;36
398;s03bis;A;pre;4;59.88404052541014;[0.016207700013183057, 0.01683710003271699, 0.016539599979296327, 0.02551299997139722];89;5;0.05888969998341054;blank.tiff;mask.tiff;0.14;a;['right'];0.18442659999709576;0;0.965;3.108570500044152;81
399;s03bis;A;pre;4;59.88404052541014;[0.018741800100542605, 0.015730899991467595, 0.01595659996382892, 0.01893949997611344];54;2;0.050626999931409955;8.tif;mask.tiff;-0.14;right;['right'];0.35857090004719794;0;0.675;3.041911300038919;40
