;subject;stim;session;block;frame_rate;frame_int;trial_nb;SOA;real_SOA;target;mask;position;cor_ans;obj_rating;obj_RT;subj_rating;subj_RT;trial_duration;trigger
0;S05;A;pre;1;60.290358330661455;[0.016634299885481596, 0.01670360006392002, 0.016443299944512546, 0.016986200003884733];91;1;0.0501331000123173;blank.tiff;mask.tiff;0.14;a;['right'];0.7222937999758869;0;1.427;4.020055899978615;17
1;S05;A;pre;1;60.290358330661455;[0.01666530000511557, 0.01681459997780621, 0.01675519999116659, 0.01679090003017336];77;5;0.05036069999914616;7.tif;mask.tiff;0.14;right;['right'];0.7153815999627113;1;0.838;3.3978448000270873;87
2;S05;A;pre;1;60.290358330661455;[0.016909099998883903, 0.01652710000053048, 0.017403300036676228, 0.016077299951575696];37;5;0.050007699988782406;7.tif;mask.tiff;0.14;right;['right'];0.79271119995974;1;1.128;3.7592848000349477;87
3;S05;A;pre;1;60.290358330661455;[0.017001000000163913, 0.016649400000460446, 0.016615199972875416, 0.016746000037528574];35;5;0.05001060001086444;3.tif;mask.tiff;0.14;left;['left'];0.4665564000606537;1;0.823;3.133464299957268;85
4;S05;A;pre;1;60.290358330661455;[0.016557900002226233, 0.017252299934625626, 0.016767900087870657, 0.016512900008819997];55;2;0.05053310003131628;8.tif;mask.tiff;0.14;right;['right'];0.24069479992613196;0;0.955;3.0403854000614956;41
5;S05;A;pre;1;60.290358330661455;[0.013205699971877038, 0.016618599998764694, 0.016120700049214065, 0.01705609995406121];23;3;0.04979540000203997;8.tif;mask.tiff;0.14;right;['right'];1.0400044999551028;1;4.585;7.473323700018227;57
6;S05;A;pre;1;60.290358330661455;[0.01641159993596375, 0.017043800093233585, 0.016747199930250645, 0.017049800022505224];51;2;0.050840800045989454;3.tif;mask.tiff;0.14;left;['left'];0.09825889999046922;1;0.725;2.6655378999421373;37
7;S05;A;pre;1;60.290358330661455;[0.017032799893058836, 0.016489500063471496, 0.01686079998034984, 0.016399199957959354];64;4;0.04974950000178069;2.tif;mask.tiff;-0.14;left;['left'];0.11593840003479272;1;0.875;2.8485076999058947;66
8;S05;A;pre;1;60.290358330661455;[0.016877500107511878, 0.016303699929267168, 0.016679299995303154, 0.016661399975419044];40;1;0.04964439989998937;2.tif;mask.tiff;-0.14;left;['left'];0.2855307999998331;1;0.83;2.9519193000160158;18
9;S05;A;pre;1;60.290358330661455;[0.01662619994021952, 0.016492699971422553, 0.016588900005444884, 0.0272987000644207];94;3;0.06038030004128814;blank.tiff;mask.tiff;-0.14;a;['left'];0.4547385999467224;0;0.906;3.204651499981992;48
10;S05;A;pre;1;60.290358330661455;[0.01684000005479902, 0.016739599988795817, 0.01694360002875328, 0.01678790000732988];47;1;0.05047110002487898;8.tif;mask.tiff;0.14;right;['left'];0.374224100029096;0;0.929;3.141098099993542;25
11;S05;A;pre;1;60.290358330661455;[0.01655239996034652, 0.016167700057849288, 0.017099799937568605, 0.016498800017870963];30;4;0.049766300013288856;8.tif;mask.tiff;-0.14;right;['left'];0.36526580003555864;1;0.668;2.8822716999566182;72
12;S05;A;pre;1;60.290358330661455;[0.01720770006068051, 0.016671399935148656, 0.016050000092945993, 0.016641799942590296];6;1;0.049363199970684946;8.tif;mask.tiff;-0.14;right;['right'];0.18294910003896803;1;0.796;2.816028199973516;24
13;S05;A;pre;1;60.290358330661455;[0.016027700039558113, 0.016535699949599802, 0.01628760003950447, 0.016431499971076846];87;4;0.04925479996018112;blank.tiff;mask.tiff;0.14;a;['left'];0.20000690000597388;0;1.012;3.05020100006368;65
14;S05;A;pre;1;60.290358330661455;[0.015602299943566322, 0.017312300042249262, 0.016344600007869303, 0.016407600021921098];4;1;0.050064500072039664;7.tif;mask.tiff;-0.14;right;['right'];0.3733788999961689;1;0.715;2.924072499969043;22
15;S05;A;pre;1;60.290358330661455;[0.016957300016656518, 0.016459399950690567, 0.017194700078107417, 0.016175500000827014];1;1;0.049829600029625;2.tif;mask.tiff;0.14;left;['left'];0.16821569995954633;1;0.741;2.751308999955654;19
16;S05;A;pre;1;60.290358330661455;[0.016897100023925304, 0.016902899951674044, 0.016250899992883205, 0.0167424000101164];76;5;0.04989619995467365;7.tif;mask.tiff;-0.14;right;['right'];0.20988470001611859;1;0.821;2.8766162999672815;86
17;S05;A;pre;1;60.290358330661455;[0.0153406000463292, 0.01597149996086955, 0.016894200001843274, 0.016070700017735362];69;4;0.048936399980448186;7.tif;mask.tiff;0.14;right;['right'];0.17461180000100285;1;0.704;2.725028199958615;71
18;S05;A;pre;1;60.290358330661455;[0.01396849995944649, 0.01661489997059107, 0.016955200000666082, 0.016486600041389465];52;2;0.050056700012646616;7.tif;mask.tiff;-0.14;right;['right'];0.1381979000288993;1;0.751;2.738012899993919;38
19;S05;A;pre;1;60.290358330661455;[0.016209800029173493, 0.017310100025497377, 0.016536999959498644, 0.02758170000743121];66;4;0.06142879999242723;3.tif;mask.tiff;-0.14;left;['left'];0.6343202999560162;1;0.867;3.334319800022058;68
20;S05;A;pre;1;60.290358330661455;[0.01640580000821501, 0.016960900044068694, 0.016581399948336184, 0.01684739999473095];99;5;0.05038969998713583;blank.tiff;mask.tiff;0.14;a;['right'];1.3228102000430226;0;0.923;4.089467599987984;81
21;S05;A;pre;1;60.290358330661455;[0.017176899942569435, 0.016586999990977347, 0.017136200098320842, 0.016433399985544384];17;3;0.05015660007484257;2.tif;mask.tiff;0.14;left;['left'];0.2831444999901578;1;0.989;3.8329767000395805;51
22;S05;A;pre;1;60.290358330661455;[0.016424200031906366, 0.017031900002621114, 0.016749799950048327, 0.016711300006136298];72;5;0.05049299995880574;2.tif;mask.tiff;-0.14;left;['left'];0.6934874000726268;1;0.877;3.410189100075513;82
23;S05;A;pre;1;60.290358330661455;[0.016348899924196303, 0.016894100001081824, 0.016445000073872507, 0.017209299956448376];36;5;0.05054840003140271;7.tif;mask.tiff;-0.14;right;['right'];0.3203966999426484;1;1.041;3.2035642999690026;86
24;S05;A;pre;1;60.290358330661455;[0.01592270005494356, 0.016717799939215183, 0.016627099947072566, 0.01681040006224066];63;3;0.05015529994852841;8.tif;mask.tiff;0.14;right;['right'];0.3675765000516549;0;0.922;3.134612200083211;57
25;S05;A;pre;1;60.290358330661455;[0.016467400011606514, 0.016729500028304756, 0.016396200051531196, 0.016826799954287708];78;5;0.04995250003412366;8.tif;mask.tiff;-0.14;right;['right'];0.2856002999469638;0;0.701;2.8185184000758454;88
26;S05;A;pre;1;60.290358330661455;[0.016111600096337497, 0.01696589996572584, 0.016661799978464842, 0.016787700005806983];42;1;0.050415399949997663;3.tif;mask.tiff;-0.14;left;['left'];0.43044420005753636;1;0.89;3.164063400006853;20
27;S05;A;pre;1;60.290358330661455;[0.016704699955880642, 0.016055600019171834, 0.016640899935737252, 0.016846700105816126];7;1;0.04954320006072521;8.tif;mask.tiff;0.14;right;['left'];0.3923141999403015;1;0.728;2.959917000029236;25
28;S05;A;pre;1;60.290358330661455;[0.01718049996998161, 0.016135100042447448, 0.0170652000233531, 0.01653759996406734];43;1;0.04973790002986789;3.tif;mask.tiff;0.14;left;['right'];1.4278539000079036;0;0.974;4.244880000012927;21
29;S05;A;pre;1;60.290358330661455;[0.016571099986322224, 0.017402200028300285, 0.016115700011141598, 0.01674800005275756];19;3;0.050265900092199445;3.tif;mask.tiff;0.14;left;['right'];0.21874499996192753;0;0.782;2.835904899984598;53
30;S05;A;pre;1;60.290358330661455;[0.01674520003143698, 0.016176800010725856, 0.016912100021727383, 0.01636709994636476];32;5;0.049455999978818;2.tif;mask.tiff;-0.14;left;['left'];0.6721157999709249;1;0.872;3.388647999963723;82
31;S05;A;pre;1;60.290358330661455;[0.016547000035643578, 0.01631119998637587, 0.01670380006544292, 0.0169446999207139];65;4;0.04995969997253269;2.tif;mask.tiff;0.14;left;['left'];0.2655974000226706;1;0.88;2.9828148001106456;67
32;S05;A;pre;1;60.290358330661455;[0.01648420002311468, 0.016743200016207993, 0.01650789997074753, 0.016972700017504394];31;4;0.05022380000445992;8.tif;mask.tiff;0.14;right;['right'];0.2594800000078976;1;1.133;3.2262572000036016;73
33;S05;A;pre;1;60.290358330661455;[0.01650809997227043, 0.016774300020188093, 0.016720500076189637, 0.016359899891540408];27;4;0.04985469998791814;3.tif;mask.tiff;0.14;left;['left'];0.2907653000438586;1;0.879;3.0121380001073703;69
34;S05;A;pre;1;60.290358330661455;[0.016945500043220818, 0.0162636999739334, 0.01684559998102486, 0.016501900041475892];24;4;0.04961119999643415;2.tif;mask.tiff;-0.14;left;['left'];0.2436632999451831;1;0.92;3.709731600014493;66
35;S05;A;pre;1;60.290358330661455;[0.016641000052914023, 0.016759300022386014, 0.016351599944755435, 0.017166399979032576];26;4;0.050277299946174026;3.tif;mask.tiff;-0.14;left;['left'];0.4157525000628084;1;0.82;3.0840630000457168;68
36;S05;A;pre;1;60.290358330661455;[0.016728100017644465, 0.016293899971060455, 0.016984299989417195, 0.016643600072711706];74;5;0.049921800033189356;3.tif;mask.tiff;-0.14;left;['left'];0.47620159992948174;1;0.924;3.2427851000102237;84
37;S05;A;pre;1;60.290358330661455;[0.016486800042912364, 0.016266999999061227, 0.017188799916766584, 0.016493000090122223];59;3;0.049948800005950034;3.tif;mask.tiff;0.14;left;['right'];0.18003519997000694;1;1.143;3.1633782000280917;53
38;S05;A;pre;1;60.290358330661455;[0.016360300011001527, 0.016782599966973066, 0.016286400030367076, 0.017189999925903976];33;5;0.05025899992324412;2.tif;mask.tiff;0.14;left;['left'];0.28288359998259693;1;1.059;3.182597600040026;83
39;S05;A;pre;1;60.290358330661455;[0.01681019994430244, 0.016676199971698225, 0.016450700000859797, 0.016397800063714385];96;4;0.04952470003627241;blank.tiff;mask.tiff;-0.14;a;['left'];0.4165511999744922;0;0.761;3.0166605000849813;64
40;S05;A;pre;1;60.290358330661455;[0.016723899985663593, 0.01644559996202588, 0.0167377000907436, 0.017159399925731122];3;1;0.050342699978500605;3.tif;mask.tiff;0.14;left;['left'];0.4919891000026837;1;0.933;3.2587023000232875;21
41;S05;A;pre;1;60.290358330661455;[0.016723999986425042, 0.01649159996304661, 0.01672279997728765, 0.016380100045353174];79;5;0.049594499985687435;8.tif;mask.tiff;0.14;right;['right'];0.38756699999794364;0;1.155;3.3876713000936434;89
42;S05;A;pre;1;60.290358330661455;[0.016018400085158646, 0.016348499921150506, 0.0166135000763461, 0.01675519999116659];57;3;0.0497171999886632;2.tif;mask.tiff;0.14;left;['right'];0.26681039994582534;1;1.041;3.1499591999454424;51
43;S05;A;pre;1;60.290358330661455;[0.016241799923591316, 0.016674500075168908, 0.016419999999925494, 0.016758100013248622];0;1;0.049852600088343024;2.tif;mask.tiff;-0.14;left;['left'];0.33649929997045547;1;0.773;2.9535090000135824;18
44;S05;A;pre;1;60.290358330661455;[0.016046700067818165, 0.016271499916911125, 0.016773700015619397, 0.01701190008316189];25;4;0.05005710001569241;2.tif;mask.tiff;0.14;left;['left'];0.18292069993913174;1;1.129;3.14986400003545;67
45;S05;A;pre;1;60.290358330661455;[0.013922199956141412, 0.016465499997138977, 0.017150099971331656, 0.016782000078819692];54;2;0.050397600047290325;8.tif;mask.tiff;-0.14;right;['right'];0.3051716999616474;1;0.792;2.938036000006832;40
46;S05;A;pre;1;60.290358330661455;[0.01729439990594983, 0.01671690004877746, 0.016298500006087124, 0.01617620000615716];67;4;0.049191600061021745;3.tif;mask.tiff;0.14;left;['left'];0.21712509996723384;1;0.679;2.7339146999875084;69
47;S05;A;pre;1;60.290358330661455;[0.016553600085899234, 0.016523099970072508, 0.016824199934490025, 0.016627100063487887];97;4;0.04997439996805042;blank.tiff;mask.tiff;0.14;a;['left'];0.3535215000156313;0;0.785;2.9863874999573454;65
48;S05;A;pre;1;60.290358330661455;[0.01690360007341951, 0.01670779997948557, 0.01674059999641031, 0.017230800003744662];73;5;0.05067919997964054;2.tif;mask.tiff;0.14;left;['left'];0.1963559000287205;1;1.013;3.046368799987249;83
49;S05;A;pre;1;60.290358330661455;[0.016145400004461408, 0.016941000008955598, 0.01625019998755306, 0.017018600017763674];20;3;0.05020980001427233;7.tif;mask.tiff;-0.14;right;['right'];0.432860599947162;1;0.727;2.999511000001803;54
50;S05;A;pre;1;60.290358330661455;[0.016604800010100007, 0.016294999979436398, 0.01730820001102984, 0.016219999990426004];38;5;0.04982319998089224;8.tif;mask.tiff;-0.14;right;['left'];0.19360809994395822;0;0.725;2.759962199954316;88
51;S05;A;pre;1;60.290358330661455;[0.016414500074461102, 0.016644599963910878, 0.01741169998422265, 0.016563600045628846];29;4;0.050619899993762374;7.tif;mask.tiff;0.14;right;['right'];0.18772619997616857;1;0.76;2.7878079999936745;71
52;S05;A;pre;1;60.290358330661455;[0.016845100093632936, 0.016236199997365475, 0.016907399985939264, 0.016768199973739684];61;3;0.04991179995704442;7.tif;mask.tiff;0.14;right;['right'];0.19504789996426553;1;0.883;2.9116430999711156;55
53;S05;A;pre;1;60.290358330661455;[0.016572399996221066, 0.016787000000476837, 0.027434300049208105, 0.00627020001411438];41;1;0.05049150006379932;2.tif;mask.tiff;0.14;left;['left'];0.13868680002633482;1;0.85;2.8213561999145895;19
54;S05;A;pre;1;60.290358330661455;[0.016573800006881356, 0.016709999996237457, 0.01811559998895973, 0.015513299964368343];93;2;0.05033889994956553;blank.tiff;mask.tiff;0.14;a;['left'];0.4487889000447467;1;0.871;3.798833500011824;33
55;S05;A;pre;1;60.290358330661455;[0.016182899940758944, 0.016963499947451055, 0.017075400101020932, 0.016418699990026653];82;2;0.05045760003849864;blank.tiff;mask.tiff;-0.14;a;['right'];1.0370988000649959;0;0.681;3.553577100043185;32
56;S05;A;pre;1;60.290358330661455;[0.016566599952057004, 0.01666359999217093, 0.01638349995482713, 0.01692600001115352];98;5;0.04997309995815158;blank.tiff;mask.tiff;-0.14;a;['left'];0.35508010000921786;0;0.814;3.004489199956879;80
57;S05;A;pre;1;60.290358330661455;[0.01704860001336783, 0.01626970001962036, 0.016734200064092875, 0.01626519998535514];49;2;0.04926910006906837;2.tif;mask.tiff;0.14;left;['left'];0.33671029994729906;1;0.91;3.085860399994999;35
58;S05;A;pre;1;60.290358330661455;[0.016682600020430982, 0.01686830003745854, 0.016421700012870133, 0.016557299997657537];11;2;0.04984730004798621;3.tif;mask.tiff;0.14;left;['left'];0.2634499999694526;1;0.915;3.0134425999131054;37
59;S05;A;pre;1;60.290358330661455;[0.01602790004108101, 0.017213699989952147, 0.01618629996664822, 0.016984399990178645];84;3;0.05038439994677901;blank.tiff;mask.tiff;-0.14;a;['left'];0.1526128000114113;0;0.908;2.902697999961674;48
60;S05;A;pre;1;60.290358330661455;[0.016338700079359114, 0.017461900017224252, 0.015605099964886904, 0.016932499944232404];53;2;0.04999949992634356;7.tif;mask.tiff;0.14;right;['right'];0.19053549994714558;1;0.707;2.7404685999499634;39
61;S05;A;pre;1;60.290358330661455;[0.0172518000472337, 0.016753299976699054, 0.01623090007342398, 0.016797499964013696];2;1;0.04978170001413673;3.tif;mask.tiff;-0.14;left;['left'];0.2898939000442624;1;0.772;2.905763400020078;20
62;S05;A;pre;1;60.290358330661455;[0.015925099956803024, 0.016985399997793138, 0.016839000047184527, 0.01668279990553856];60;3;0.050507199950516224;7.tif;mask.tiff;-0.14;right;['right'];0.21909949998371303;1;0.654;2.719137000036426;54
63;S05;A;pre;1;60.290358330661455;[0.016262999968603253, 0.01654520002193749, 0.016769499983638525, 0.017103300080634654];58;3;0.05041800008621067;3.tif;mask.tiff;-0.14;left;['left'];0.960211000056006;1;0.882;3.676782499998808;52
64;S05;A;pre;1;60.290358330661455;[0.014788999920710921, 0.016716600046493113, 0.016231599962338805, 0.027886099996976554];89;5;0.06083430000580847;blank.tiff;mask.tiff;0.14;a;['left'];0.5623435000889003;1;1.588;3.9964028999675065;81
65;S05;A;pre;1;60.290358330661455;[0.01660139998421073, 0.016846599988639355, 0.016360200010240078, 0.01689169998280704];12;2;0.05009849998168647;7.tif;mask.tiff;-0.14;right;['right'];0.272082099923864;1;0.938;3.0554129000520334;38
66;S05;A;pre;1;60.290358330661455;[0.015473300009034574, 0.017662700032815337, 0.015874799923039973, 0.01713630009908229];44;1;0.0506738000549376;7.tif;mask.tiff;-0.14;right;['right'];0.40949640003964305;1;0.701;2.9427486999193206;22
67;S05;A;pre;1;60.290358330661455;[0.01629289996344596, 0.016713000019080937, 0.016854300047270954, 0.01712579990271479];39;5;0.05069309996906668;8.tif;mask.tiff;0.14;right;['right'];0.12061340000946075;1;0.646;2.6035302999662235;89
68;S05;A;pre;1;60.290358330661455;[0.016272200038656592, 0.01695099996868521, 0.016126099973917007, 0.017738600028678775];86;4;0.05081569997128099;blank.tiff;mask.tiff;-0.14;a;['left'];0.3026023000711575;0;0.634;2.821410599979572;64
69;S05;A;pre;1;60.290358330661455;[0.016602199990302324, 0.016571399988606572, 0.01720460003707558, 0.016314599895849824];16;3;0.050090599921531975;2.tif;mask.tiff;-0.14;left;['left'];0.23315629991702735;1;0.916;2.9827243000036106;50
70;S05;A;pre;1;60.290358330661455;[0.016611300059594214, 0.016613599960692227, 0.01694799994584173, 0.01653480005916208];83;2;0.05009639996569604;blank.tiff;mask.tiff;0.14;a;['left'];0.336217200034298;0;1.0;3.1702636000700295;33
71;S05;A;pre;1;60.290358330661455;[0.015746000106446445, 0.016755899996496737, 0.016408199910074472, 0.016797700081951916];71;4;0.049961799988523126;8.tif;mask.tiff;0.14;right;['right'];0.23081730003468692;1;5.135;7.214264300069772;73
72;S05;A;pre;1;60.290358330661455;[0.015983200049959123, 0.017195999971590936, 0.016485400032252073, 0.016257199924439192];22;3;0.0499385999282822;8.tif;mask.tiff;-0.14;right;['left'];0.17596539994701743;1;0.919;2.941525600035675;56
73;S05;A;pre;1;60.290358330661455;[0.017046499997377396, 0.01681030006147921, 0.016440399922430515, 0.017279600026085973];15;2;0.0505303000099957;8.tif;mask.tiff;0.14;right;['right'];0.31848979997448623;0;0.677;2.835165199940093;41
74;S05;A;pre;1;60.290358330661455;[0.01707569998688996, 0.025835799984633923, 0.006973600015044212, 0.016763500054366887];50;2;0.04957290005404502;3.tif;mask.tiff;-0.14;left;['left'];0.3495169000234455;1;0.708;2.8997205999912694;36
75;S05;A;pre;1;60.290358330661455;[0.016986900009214878, 0.016262800083495677, 0.01685759995598346, 0.01690809999126941];56;3;0.050028500030748546;2.tif;mask.tiff;-0.14;left;['left'];0.20103599992580712;1;1.002;3.6345746000297368;50
76;S05;A;pre;1;60.290358330661455;[0.013938299962319434, 0.016667600022628903, 0.01683860004413873, 0.016714499914087355];95;3;0.05022069998085499;blank.tiff;mask.tiff;0.14;a;['left'];0.20017860003281385;1;1.0;3.049843299901113;49
77;S05;A;pre;1;60.290358330661455;[0.017547700088471174, 0.016192899900488555, 0.01660259999334812, 0.017099600052461028];46;1;0.049895099946297705;8.tif;mask.tiff;-0.14;right;['right'];0.19982859992887825;1;0.851;2.883143699960783;24
78;S05;A;pre;1;60.290358330661455;[0.012602199916727841, 0.016557800001464784, 0.016726200003176928, 0.016796500072814524];80;1;0.050080500077456236;blank.tiff;mask.tiff;-0.14;a;['left'];1.0894185000797734;0;0.975;3.8969583000289276;16
79;S05;A;pre;1;60.290358330661455;[0.01054139994084835, 0.017067700042389333, 0.01639699994120747, 0.01681500009726733];14;2;0.05027970008086413;8.tif;mask.tiff;-0.14;right;['right'];0.18545299989636987;1;1.684;3.7190159000456333;40
80;S05;A;pre;1;60.290358330661455;[0.016801099991425872, 0.016674199956469238, 0.01704409997910261, 0.016468500019982457];45;1;0.050186799955554307;7.tif;mask.tiff;0.14;right;['right'];0.2866718000732362;1;0.728;2.8530099999625236;23
81;S05;A;pre;1;60.290358330661455;[0.016725099994800985, 0.016264900099486113, 0.017012699972838163, 0.016931899939663708];75;5;0.050209500011987984;3.tif;mask.tiff;0.14;left;['left'];0.2011697000125423;1;0.822;3.533611499937251;85
82;S05;A;pre;1;60.290358330661455;[0.016812899964861572, 0.016855400055646896, 0.016548499930649996, 0.016699700034223497];8;2;0.05010360002052039;2.tif;mask.tiff;-0.14;left;['left'];0.47380530007649213;1;0.761;3.0732965000206605;34
83;S05;A;pre;1;60.290358330661455;[0.013619799981825054, 0.016188999987207353, 0.01703230000566691, 0.01670210005249828];28;4;0.049923400045372546;7.tif;mask.tiff;-0.14;right;['right'];0.1634963999968022;1;0.902;2.913745400030166;70
84;S05;A;pre;1;60.290358330661455;[0.012381999986246228, 0.016582899959757924, 0.016418599989265203, 0.016713700024411082];62;3;0.04971519997343421;8.tif;mask.tiff;-0.14;right;['right'];0.2429912000661716;1;0.84;2.920383800053969;56
85;S05;A;pre;1;60.290358330661455;[0.015865199966356158, 0.01654520002193749, 0.01670479995664209, 0.01683390000835061];92;2;0.05008389998693019;blank.tiff;mask.tiff;-0.14;a;['right'];0.3568498999811709;0;0.929;3.122922100010328;32
86;S05;A;pre;1;60.290358330661455;[0.016398100065998733, 0.016744499909691513, 0.016449799994006753, 0.01665610005147755];81;1;0.04985039995517582;blank.tiff;mask.tiff;0.14;a;['right'];0.21452929999213666;0;0.844;2.897125000017695;17
87;S05;A;pre;1;60.290358330661455;[0.017242499976418912, 0.016494099982082844, 0.01701760001014918, 0.016381700057536364];10;2;0.04989340004976839;3.tif;mask.tiff;-0.14;left;['left'];0.2669061999768019;1;0.848;2.950188299990259;36
88;S05;A;pre;1;60.290358330661455;[0.01666530000511557, 0.01706509990617633, 0.01675290009006858, 0.016505399951711297];70;4;0.050323399947956204;8.tif;mask.tiff;-0.14;right;['right'];0.2946836999617517;1;0.876;3.0113139000022784;72
89;S05;A;pre;1;60.290358330661455;[0.016347600030712783, 0.016901200055144727, 0.016620000009424984, 0.01661179994698614];5;1;0.05013300001155585;7.tif;mask.tiff;0.14;right;['right'];0.13259649998508394;1;0.768;2.732018999988213;23
90;S05;A;pre;1;60.290358330661455;[0.016581199946813285, 0.01725769997574389, 0.016602199990302324, 0.016219999990426004];34;5;0.05007989995647222;3.tif;mask.tiff;-0.14;left;['left'];0.32679990003816783;1;0.858;3.0265740000177175;84
91;S05;A;pre;1;60.290358330661455;[0.017854500096291304, 0.013948499923571944, 0.016871600062586367, 0.016866300022229552];48;2;0.047686400008387864;2.tif;mask.tiff;-0.14;left;['left'];0.21923709998372942;1;0.933;3.001947099925019;34
92;S05;A;pre;1;60.290358330661455;[0.01679839997086674, 0.016661399975419044, 0.016704900073818862, 0.016220099991187453];85;3;0.04958640004042536;blank.tiff;mask.tiff;0.14;a;['left'];0.3656866999808699;0;0.928;3.1325192999793217;49
93;S05;A;pre;1;60.290358330661455;[0.016451100003905594, 0.017028000089339912, 0.016472599934786558, 0.016642500064335763];21;3;0.050143100088462234;7.tif;mask.tiff;0.14;right;['left'];0.375462899915874;0;0.831;3.0414597999770194;55
94;S05;A;pre;1;60.290358330661455;[0.016161800012923777, 0.01694660005159676, 0.01663720002397895, 0.01711979997344315];68;4;0.05070360004901886;7.tif;mask.tiff;-0.14;right;['right'];0.2040302000241354;1;0.917;2.970682799932547;70
95;S05;A;pre;1;60.290358330661455;[0.016042600036598742, 0.016595999943092465, 0.016845600097440183, 0.016488299937918782];13;2;0.04992989997845143;7.tif;mask.tiff;0.14;right;['right'];0.11827020009513944;1;0.763;2.7184535999549553;39
96;S05;A;pre;1;60.290358330661455;[0.01655549998395145, 0.016546900034882128, 0.017136899987235665, 0.01595659996382892];9;2;0.049640399985946715;2.tif;mask.tiff;0.14;left;['left'];0.490172200021334;1;0.958;4.940518000046723;35
97;S05;A;pre;1;60.290358330661455;[0.01670349994674325, 0.01716589997522533, 0.01599850005004555, 0.01709350000601262];18;3;0.0502579000312835;3.tif;mask.tiff;-0.14;left;['left'];0.4509041999699548;1;0.871;3.1677048000274226;52
98;S05;A;pre;1;60.290358330661455;[0.016951299970969558, 0.016140500083565712, 0.016849800013005733, 0.016349699930287898];90;1;0.04934000002685934;blank.tiff;mask.tiff;-0.14;a;['right'];0.23280070000328124;0;0.998;3.0668092999840155;16
99;S05;A;pre;1;60.290358330661455;[0.01701609999872744, 0.01661940000485629, 0.01671260001603514, 0.016291299951262772];88;5;0.0496232999721542;blank.tiff;mask.tiff;-0.14;a;['left'];0.14709460001904517;0;0.92;2.913308500079438;80
100;S05;A;pre;2;60.290358330661455;[0.016410900047048926, 0.01666059996932745, 0.016852100030519068, 0.016686599934473634];48;2;0.05019929993432015;2.tif;mask.tiff;-0.14;left;['left'];0.4228171000722796;1;0.77;3.022985400049947;34
101;S05;A;pre;2;60.290358330661455;[0.01609920000191778, 0.016797299962490797, 0.016682300018146634, 0.016867000027559698];52;2;0.05034660000819713;7.tif;mask.tiff;-0.14;right;['right'];0.33824800001457334;1;0.905;3.077430700068362;38
102;S05;A;pre;2;60.290358330661455;[0.01715840003453195, 0.01647090003825724, 0.01729459990747273, 0.015913399984128773];36;5;0.049678899929858744;7.tif;mask.tiff;-0.14;right;['right'];0.40279199997894466;1;0.839;3.0858079999452457;86
103;S05;A;pre;2;60.290358330661455;[0.016507000080309808, 0.016888199956156313, 0.016676199971698225, 0.016876199981197715];93;2;0.05044059990905225;blank.tiff;mask.tiff;0.14;a;['left'];0.45784539997112006;0;0.833;3.1247277999063954;33
104;S05;A;pre;2;60.290358330661455;[0.01669909991323948, 0.016780300065875053, 0.016543900012038648, 0.016999499988742173];84;3;0.050323700066655874;blank.tiff;mask.tiff;-0.14;a;['right'];0.34945810004137456;0;0.87;3.066220000036992;48
105;S05;A;pre;2;60.290358330661455;[0.0173376000020653, 0.01630050002131611, 0.016384699963964522, 0.017172200023196638];66;4;0.04985740000847727;3.tif;mask.tiff;-0.14;left;['left'];0.2375731999054551;1;1.276;3.354088200023398;68
106;S05;A;pre;2;60.290358330661455;[0.016272599925287068, 0.01681479997932911, 0.016203800099901855, 0.01690949988551438];18;3;0.04992809996474534;3.tif;mask.tiff;-0.14;left;['left'];0.46800919994711876;1;0.817;3.11776930000633;52
107;S05;A;pre;2;60.290358330661455;[0.016971000004559755, 0.01692460000049323, 0.01668610004708171, 0.016631799982860684];11;2;0.05024250003043562;3.tif;mask.tiff;0.14;left;['left'];0.31548479991033673;0;1.198;3.3481585000408813;37
108;S05;A;pre;2;60.290358330661455;[0.0171040000859648, 0.01666639989707619, 0.016408000024966896, 0.016410000040195882];61;3;0.04948439996223897;7.tif;mask.tiff;0.14;right;['left'];0.3592416999163106;0;0.843;3.0426149000413716;55
109;S05;A;pre;2;60.290358330661455;[0.016287700040265918, 0.016636000014841557, 0.016600599978119135, 0.017122399993240833];40;1;0.050358999986201525;2.tif;mask.tiff;-0.14;left;['left'];0.6012001000344753;1;1.115;3.567330399993807;18
110;S05;A;pre;2;60.290358330661455;[0.01688719994854182, 0.016196100041270256, 0.016533899935893714, 0.016762500046752393];57;3;0.049492500023916364;2.tif;mask.tiff;0.14;left;['left'];0.5160419000312686;1;0.745;3.099624100024812;51
111;S05;A;pre;2;60.290358330661455;[0.01663259998895228, 0.016530800028704107, 0.016839399933815002, 0.01634790003299713];91;1;0.04971809999551624;blank.tiff;mask.tiff;0.14;a;['left'];0.6928785999771208;0;0.915;3.4433214999735355;17
112;S05;A;pre;2;60.290358330661455;[0.016651200014166534, 0.016566799953579903, 0.017127000028267503, 0.016055300016887486];88;5;0.04974909999873489;blank.tiff;mask.tiff;-0.14;a;['left'];0.3049097000621259;0;1.185;3.322316200006753;80
113;S05;A;pre;2;60.290358330661455;[0.017550499993376434, 0.01627979998011142, 0.016935900086537004, 0.01669189997483045];44;1;0.04990760004147887;7.tif;mask.tiff;-0.14;right;['right'];0.5363964999560267;1;0.736;3.119471100042574;22
114;S05;A;pre;2;60.290358330661455;[0.006998199969530106, 0.016675099963322282, 0.01678210007958114, 0.01702369994018227];68;4;0.05048089998308569;7.tif;mask.tiff;-0.14;right;['right'];0.656540900003165;1;1.284;3.7645559000084177;70
115;S05;A;pre;2;60.290358330661455;[0.01626629999373108, 0.016694199992343783, 0.016423200024291873, 0.0162010999629274];34;5;0.04931849997956306;3.tif;mask.tiff;-0.14;left;['left'];0.3380139000946656;1;0.742;2.9211459999205545;84
116;S05;A;pre;2;60.290358330661455;[0.01769299991428852, 0.01579700002912432, 0.01658970001153648, 0.01700120000168681];63;3;0.04938790004234761;8.tif;mask.tiff;0.14;right;['right'];0.14355189993511885;1;0.713;2.6939080000156537;57
117;S05;A;pre;2;60.290358330661455;[0.01639100001193583, 0.016317500034347177, 0.017277400009334087, 0.015798999927937984];4;1;0.04939389997161925;7.tif;mask.tiff;-0.14;right;['right'];0.6263083999510854;1;0.812;3.276165400049649;22
118;S05;A;pre;2;60.290358330661455;[0.017398800002411008, 0.01594220008701086, 0.01662659994326532, 0.01686059997882694];16;3;0.04942940000910312;2.tif;mask.tiff;-0.14;left;['left'];0.2885326000396162;1;1.063;3.1896777000511065;50
119;S05;A;pre;2;60.290358330661455;[0.016547000035643578, 0.016586899990215898, 0.016673599951900542, 0.016802600002847612];54;2;0.05006309994496405;8.tif;mask.tiff;-0.14;right;['right'];0.25278089998755604;1;0.85;2.935275699943304;40
120;S05;A;pre;2;60.290358330661455;[0.013867600006051362, 0.016454000025987625, 0.017153199994936585, 0.01664160005748272];50;2;0.05024880007840693;3.tif;mask.tiff;-0.14;left;['left'];0.2759512000484392;1;0.779;2.89233239996247;36
121;S05;A;pre;2;60.290358330661455;[0.01719120005145669, 0.016516299918293953, 0.0169674000935629, 0.01610809995327145];56;3;0.0495917999651283;2.tif;mask.tiff;-0.14;left;['left'];1.0433399999747053;1;1.342;4.226418500067666;50
122;S05;A;pre;2;60.290358330661455;[0.016984399990178645, 0.016944300034083426, 0.016306799952872097, 0.016472300048917532];6;1;0.049723400035873055;8.tif;mask.tiff;-0.14;right;['right'];0.5109676000429317;1;0.869;3.2274272999493405;24
123;S05;A;pre;2;60.290358330661455;[0.01691560004837811, 0.01681910001207143, 0.01643550000153482, 0.016469900030642748];90;1;0.049724500044249;blank.tiff;mask.tiff;-0.14;a;['left'];0.3278167999815196;0;0.888;3.0612960999133065;16
124;S05;A;pre;2;60.290358330661455;[0.016438499907962978, 0.016962000052444637, 0.016439300030469894, 0.017126700025983155];65;4;0.050528000108897686;2.tif;mask.tiff;0.14;left;['left'];0.47714380000252277;1;0.944;3.2609921999974176;67
125;S05;A;pre;2;60.290358330661455;[0.0164929999737069, 0.016765299951657653, 0.0173337000887841, 0.015719300019554794];41;1;0.049818300059996545;2.tif;mask.tiff;0.14;left;['left'];0.45944639993831515;0;0.803;3.109245299943723;19
126;S05;A;pre;2;60.290358330661455;[0.016275699948891997, 0.017852700082585216, 0.015649499953724444, 0.016280299983918667];53;2;0.049782500020228326;7.tif;mask.tiff;0.14;right;['right'];0.5889713999349624;1;0.725;3.1555196000263095;39
127;S05;A;pre;2;60.290358330661455;[0.016357199987396598, 0.016865900019183755, 0.016927899909205735, 0.017144000041298568];25;4;0.05093779996968806;2.tif;mask.tiff;0.14;left;['left'];0.5223171999678016;1;1.085;3.4554948000004515;67
128;S05;A;pre;2;60.290358330661455;[0.016665800008922815, 0.016526299994438887, 0.016611000057309866, 0.016795899951830506];27;4;0.04993320000357926;3.tif;mask.tiff;0.14;left;['left'];0.3592083000112325;1;0.949;3.1430418000090867;69
129;S05;A;pre;2;60.290358330661455;[0.016618099994957447, 0.01651109999511391, 0.017128000035881996, 0.01617169997189194];60;3;0.049810800002887845;7.tif;mask.tiff;-0.14;right;['right'];0.20383250003214926;1;1.741;3.7870609000092372;54
130;S05;A;pre;2;60.290358330661455;[0.014104300062172115, 0.017233500024303794, 0.016170799965038896, 0.016634700004942715];83;2;0.050038999994285405;blank.tiff;mask.tiff;0.14;a;['left'];0.1587041000602767;0;0.958;2.958817800041288;33
131;S05;A;pre;2;60.290358330661455;[0.01703519991133362, 0.01613350003026426, 0.01713329995982349, 0.016317900037392974];76;5;0.04958470002748072;7.tif;mask.tiff;-0.14;right;['right'];0.46479030000045896;1;0.835;3.1312295000534505;86
132;S05;A;pre;2;60.290358330661455;[0.016806299914605916, 0.019588900031521916, 0.014275799971073866, 0.01603250007610768];12;2;0.04989720007870346;7.tif;mask.tiff;-0.14;right;['right'];0.2765053999610245;1;1.044;3.160181500017643;38
133;S05;A;pre;2;60.290358330661455;[0.01677910005673766, 0.01624300004914403, 0.017059999983757734, 0.016675899969413877];97;4;0.04997890000231564;blank.tiff;mask.tiff;0.14;a;['right'];0.42679439997300506;0;0.979;3.2434445000253618;65
134;S05;A;pre;2;60.290358330661455;[0.016459799953736365, 0.016668800031766295, 0.017405500053428113, 0.016183899948373437];51;2;0.050258200033567846;3.tif;mask.tiff;0.14;left;['left'];0.274721399997361;1;1.413;3.5246825999347493;37
135;S05;A;pre;2;60.290358330661455;[0.01700869994238019, 0.01603679999243468, 0.01702100003603846, 0.01650669996161014];82;2;0.04956449999008328;blank.tiff;mask.tiff;-0.14;a;['left'];1.0012068999931216;0;2.135;4.984701900044456;32
136;S05;A;pre;2;60.290358330661455;[0.01635079993866384, 0.017113000038079917, 0.016884599928744137, 0.016648299992084503];35;5;0.05064589995890856;3.tif;mask.tiff;0.14;left;['left'];0.2106476000044495;1;0.79;2.843547699972987;85
137;S05;A;pre;2;60.290358330661455;[0.015797099913470447, 0.016836000024341047, 0.01692580000963062, 0.016776700038462877];13;2;0.050538500072434545;7.tif;mask.tiff;0.14;right;['right'];0.5798229000065476;1;0.772;3.1967499000020325;39
138;S05;A;pre;2;60.290358330661455;[0.015706100035458803, 0.017055499949492514, 0.01711390004493296, 0.016284800018183887];32;5;0.05045420001260936;2.tif;mask.tiff;-0.14;left;['left'];0.6297866000095382;1;0.778;3.2465872999746352;82
139;S05;A;pre;2;60.290358330661455;[0.016458299942314625, 0.0168548000510782, 0.01653279992751777, 0.01677920005749911];94;3;0.05016680003609508;blank.tiff;mask.tiff;-0.14;a;['left'];0.9848293999675661;0;0.725;3.5516978000523522;48
140;S05;A;pre;2;60.290358330661455;[0.016037199995480478, 0.01684480009134859, 0.026834199903532863, 0.006259200046770275];17;3;0.049938200041651726;2.tif;mask.tiff;0.14;left;['right'];0.20558160007931292;1;0.755;2.788927000015974;51
141;S05;A;pre;2;60.290358330661455;[0.015238799969665706, 0.016634300001896918, 0.016951999976299703, 0.016732200048863888];75;5;0.05031850002706051;3.tif;mask.tiff;0.14;left;['left'];0.550572199979797;1;0.933;3.317125300061889;85
142;S05;A;pre;2;60.290358330661455;[0.016519299941137433, 0.0166371000232175, 0.016708899987861514, 0.017080900026485324];33;5;0.05042690003756434;2.tif;mask.tiff;0.14;left;['left'];0.3868637999985367;1;0.817;3.0372120999963954;83
143;S05;A;pre;2;60.290358330661455;[0.016794299939647317, 0.016908699995838106, 0.01654219999909401, 0.01660760003142059];43;1;0.050058500026352704;3.tif;mask.tiff;0.14;left;['left'];0.373955599963665;1;1.074;3.923385599977337;21
144;S05;A;pre;2;60.290358330661455;[0.01708729995880276, 0.016522399964742362, 0.01635559997521341, 0.016670800046995282];3;1;0.04954879998695105;3.tif;mask.tiff;0.14;left;['left'];0.34770949999801815;1;0.898;3.081070899963379;21
145;S05;A;pre;2;60.290358330661455;[0.016624300042167306, 0.016361399902962148, 0.01709770003799349, 0.016724999994039536];81;1;0.050184099934995174;blank.tiff;mask.tiff;0.14;a;['right'];0.8237013999605551;0;0.958;3.624410899938084;17
146;S05;A;pre;2;60.290358330661455;[0.017873400007374585, 0.01563849998638034, 0.016726500005461276, 0.01664719998370856];5;1;0.049012199975550175;7.tif;mask.tiff;0.14;right;['right'];0.5908152000047266;1;0.848;3.2736252999166027;23
147;S05;A;pre;2;60.290358330661455;[0.016976999933831394, 0.016636700020171702, 0.016480699996463954, 0.016930700046941638];23;3;0.050048100063577294;8.tif;mask.tiff;0.14;right;['right'];0.22072450001724064;1;1.09;3.1539868999971077;57
148;S05;A;pre;2;60.290358330661455;[0.0170607001055032, 0.016695099999196827, 0.016744599910452962, 0.016211200039833784];95;3;0.04965089994948357;blank.tiff;mask.tiff;0.14;a;['left'];1.0301060999045148;0;0.717;3.5800060000037774;49
149;S05;A;pre;2;60.290358330661455;[0.015643400023691356, 0.01630350004415959, 0.017661300022155046, 0.01644439995288849];86;4;0.050409200019203126;blank.tiff;mask.tiff;-0.14;a;['left'];0.3618791999761015;0;0.672;2.8783732999581844;64
150;S05;A;pre;2;60.290358330661455;[0.016197300050407648, 0.01691270002629608, 0.0176648999331519, 0.01585169997997582];74;5;0.0504292999394238;3.tif;mask.tiff;-0.14;left;['left'];0.22017340001184493;1;0.793;2.853401800035499;84
151;S05;A;pre;2;60.290358330661455;[0.01400099997408688, 0.016624300042167306, 0.016489699948579073, 0.017410799977369606];42;1;0.050524799968115985;3.tif;mask.tiff;-0.14;left;['left'];0.16500310006085783;1;1.011;3.0142123999539763;20
152;S05;A;pre;2;60.290358330661455;[0.016485999920405447, 0.016520600067451596, 0.016589000006206334, 0.016723399981856346];89;5;0.049833000055514276;blank.tiff;mask.tiff;0.14;a;['left'];0.15281919995322824;0;0.91;2.9037934000371024;81
153;S05;A;pre;2;60.290358330661455;[0.016807000036351383, 0.016739599988795817, 0.016185899963602424, 0.016819700016640127];79;5;0.04974519996903837;8.tif;mask.tiff;0.14;right;['right'];0.11121459992136806;0;0.916;2.861010799999349;89
154;S05;A;pre;2;60.290358330661455;[0.016498900018632412, 0.017011500080116093, 0.016486399923451245, 0.01617020007688552];49;2;0.04966810008045286;2.tif;mask.tiff;0.14;left;['left'];0.12096510000992566;1;0.662;2.6210883000167087;35
155;S05;A;pre;2;60.290358330661455;[0.017127999919466674, 0.016322600073181093, 0.01689630001783371, 0.016413399949669838];8;2;0.04963230004068464;2.tif;mask.tiff;-0.14;left;['left'];0.1339795000385493;1;0.767;2.7503457000711933;34
156;S05;A;pre;2;60.290358330661455;[0.016639100038446486, 0.01604739995673299, 0.01700620003975928, 0.01644170004874468];19;3;0.049495300045236945;3.tif;mask.tiff;0.14;left;['left'];0.3073173000011593;1;0.752;2.8910626999568194;53
157;S05;A;pre;2;60.290358330661455;[0.016193200019188225, 0.017485099961049855, 0.016265999991446733, 0.016821500030346215];15;2;0.0505725999828428;8.tif;mask.tiff;0.14;right;['right'];0.21860399993602186;1;1.107;3.169054999947548;41
158;S05;A;pre;2;60.290358330661455;[0.016716000041924417, 0.01647809997666627, 0.016920999973081052, 0.016565400059334934];20;3;0.04996450000908226;7.tif;mask.tiff;-0.14;right;['right'];0.479838699917309;1;0.685;3.0128596000140533;54
159;S05;A;pre;2;60.290358330661455;[0.015990099986083806, 0.01667689997702837, 0.016587499994784594, 0.017308700014837086];37;5;0.05057309998665005;7.tif;mask.tiff;0.14;right;['right'];0.16790879995096475;1;0.75;2.750600899918936;87
160;S05;A;pre;2;60.290358330661455;[0.01614490000065416, 0.017278200015425682, 0.016210800036787987, 0.027469499967992306];26;4;0.060958500020205975;3.tif;mask.tiff;-0.14;left;['left'];0.9889205999206752;1;0.907;3.739210500032641;68
161;S05;A;pre;2;60.290358330661455;[0.01671270001679659, 0.01660279999487102, 0.01707260007970035, 0.01678659999743104];22;3;0.05046200007200241;8.tif;mask.tiff;-0.14;right;['right'];0.2942506999243051;1;1.193;3.3279786000493914;56
162;S05;A;pre;2;60.290358330661455;[0.01693759998306632, 0.017154400004073977, 0.016084700007922947, 0.01674230000935495];73;5;0.049981400021351874;2.tif;mask.tiff;0.14;left;['left'];0.13807980006095022;1;0.696;2.6714581000851467;83
163;S05;A;pre;2;60.290358330661455;[0.019396299961954355, 0.014157800003886223, 0.016014999942854047, 0.016846499987877905];87;4;0.047019299934618175;blank.tiff;mask.tiff;0.14;a;['left'];0.18479189998470247;0;0.672;2.70105449995026;65
164;S05;A;pre;2;60.290358330661455;[0.01800790010020137, 0.015818599960766733, 0.016594700049608946, 0.017147399950772524];24;4;0.0495606999611482;2.tif;mask.tiff;-0.14;left;['left'];0.19034510001074523;1;0.654;2.6906734000658616;66
165;S05;A;pre;2;60.290358330661455;[0.0165316000347957, 0.01655980001669377, 0.017024199943989515, 0.01655699999537319];7;1;0.050140999956056476;8.tif;mask.tiff;0.14;right;['right'];1.2248859000392258;1;0.795;3.8580000000074506;25
166;S05;A;pre;2;60.290358330661455;[0.016163400025106966, 0.01673010003287345, 0.016390500008128583, 0.016748499940149486];96;4;0.04986909998115152;blank.tiff;mask.tiff;-0.14;a;['left'];0.8131005999166518;0;0.894;3.5460813000099733;64
167;S05;A;pre;2;60.290358330661455;[0.01719869999215007, 0.016052400111220777, 0.01672839990351349, 0.016393400030210614];21;3;0.04917420004494488;7.tif;mask.tiff;0.14;right;['right'];0.23389879998285323;1;1.053;3.133958699996583;55
168;S05;A;pre;2;60.290358330661455;[0.016090599936433136, 0.01696470007300377, 0.01664729998447001, 0.016874699969775975];14;2;0.050486700027249753;8.tif;mask.tiff;-0.14;right;['right'];0.5053469999693334;1;0.794;3.138092300039716;40
169;S05;A;pre;2;60.290358330661455;[0.016758900019340217, 0.016646699979901314, 0.016621800023131073, 0.01619389990810305];29;4;0.049462399911135435;7.tif;mask.tiff;0.14;right;['right'];0.23809009999968112;0;0.618;2.7046751000452787;71
170;S05;A;pre;2;60.290358330661455;[0.01536580000538379, 0.016587199992500246, 0.016913000028580427, 0.016206300002522767];31;4;0.04970650002360344;8.tif;mask.tiff;0.14;right;['right'];0.5723763999994844;0;1.772;4.188974600052461;73
171;S05;A;pre;2;60.290358330661455;[0.01679699996020645, 0.016858099959790707, 0.015838999999687076, 0.017303000087849796];30;4;0.05000010004732758;8.tif;mask.tiff;-0.14;right;['right'];1.4993609000230208;1;1.277;4.616591900005005;72
172;S05;A;pre;2;60.290358330661455;[0.016970700002275407, 0.016627300065010786, 0.016625699936412275, 0.016864300007000566];67;4;0.050117300008423626;3.tif;mask.tiff;0.14;left;['left'];0.7110884999856353;0;1.639;4.194166800007224;69
173;S05;A;pre;2;60.290358330661455;[0.01758960005827248, 0.01630349992774427, 0.016684100031852722, 0.016809400054626167];45;1;0.04979700001422316;7.tif;mask.tiff;0.14;right;['right'];0.4302416999125853;1;0.711;2.980562199954875;23
174;S05;A;pre;2;60.290358330661455;[0.016903099953196943, 0.01658960001077503, 0.017020000028423965, 0.016656800056807697];98;5;0.05026640009600669;blank.tiff;mask.tiff;-0.14;a;['left'];0.23008310003206134;0;1.401;3.463668300071731;80
175;S05;A;pre;2;60.290358330661455;[0.01682219991926104, 0.016785999992862344, 0.01666650001425296, 0.016527600004337728];70;4;0.04998010001145303;8.tif;mask.tiff;-0.14;right;['left'];1.2139424999477342;1;0.8;3.847289300058037;72
176;S05;A;pre;2;60.290358330661455;[0.013639100012369454, 0.019975399947725236, 0.013267499976791441, 0.016610000049695373];99;5;0.04985289997421205;blank.tiff;mask.tiff;0.14;a;['left'];0.23841990006621927;0;0.787;2.8720079999184236;81
177;S05;A;pre;2;60.290358330661455;[0.013832599972374737, 0.016967899980954826, 0.016407700022682548, 0.016637800028547645];2;1;0.05001340003218502;3.tif;mask.tiff;-0.14;left;['left'];0.70947989996057;1;1.384;3.9427292000036687;20
178;S05;A;pre;2;60.290358330661455;[0.016337099950760603, 0.01691430003847927, 0.016527700005099177, 0.017015599994920194];80;1;0.05045760003849864;blank.tiff;mask.tiff;-0.14;a;['left'];0.822239900007844;0;0.691;3.3556167000206187;16
179;S05;A;pre;2;60.290358330661455;[0.013858099933713675, 0.016185700078494847, 0.017027499969117343, 0.017015699995681643];0;1;0.050228900043293834;2.tif;mask.tiff;-0.14;left;['left'];0.6491316999308765;1;0.71;3.1988422999856994;18
180;S05;A;pre;2;60.290358330661455;[0.016867400030605495, 0.016763899940997362, 0.016507399966940284, 0.016266799997538328];39;5;0.049538099905475974;8.tif;mask.tiff;0.14;right;['right'];1.0358314999612048;1;1.87;4.752152499975637;89
181;S05;A;pre;2;60.290358330661455;[0.01679580006748438, 0.016564699937589467, 0.016941700014285743, 0.016410700045526028];92;2;0.04991709999740124;blank.tiff;mask.tiff;-0.14;a;['left'];1.438709200010635;0;1.109;4.389447599998675;32
182;S05;A;pre;2;60.290358330661455;[0.015772699960507452, 0.016790600027889013, 0.016800899989902973, 0.016565999947488308];62;3;0.050157499965280294;8.tif;mask.tiff;-0.14;right;['right'];0.2715352999512106;1;1.401;3.5048568000784144;56
183;S05;A;pre;2;60.290358330661455;[0.01657310000155121, 0.01755119999870658, 0.015857999911531806, 0.01636160002090037];28;4;0.049770799931138754;7.tif;mask.tiff;-0.14;right;['right'];0.8964234000304714;1;0.694;3.429903999902308;70
184;S05;A;pre;2;60.290358330661455;[0.01677009998820722, 0.01639870007056743, 0.016779799945652485, 0.016888400074094534];9;2;0.05006690009031445;2.tif;mask.tiff;0.14;left;['left'];0.32656929991208017;1;0.76;2.9264109999639913;35
185;S05;A;pre;2;60.290358330661455;[0.016906199976801872, 0.016643199953250587, 0.016661299974657595, 0.01657340000383556];77;5;0.04987789993174374;7.tif;mask.tiff;0.14;right;['right'];0.7986434999620542;1;0.714;3.348691700026393;87
186;S05;A;pre;2;60.290358330661455;[0.01702179992571473, 0.016573600005358458, 0.01711890008300543, 0.015754099935293198];72;5;0.049446600023657084;2.tif;mask.tiff;-0.14;left;['left'];0.7936076000332832;1;0.725;3.359200800070539;82
187;S05;A;pre;2;60.290358330661455;[0.01690639997832477, 0.016729500028304756, 0.01617600000463426, 0.01706779992673546];38;5;0.04997329995967448;8.tif;mask.tiff;-0.14;right;['right'];0.9620275000343099;1;1.173;3.9789928999962285;88
188;S05;A;pre;2;60.290358330661455;[0.016664700000546873, 0.016809800057671964, 0.016637300024740398, 0.016902799950912595];69;4;0.05034990003332496;7.tif;mask.tiff;0.14;right;['right'];0.4590117000043392;1;0.671;2.9750348000088707;71
189;S05;A;pre;2;60.290358330661455;[0.0170103000709787, 0.01690960000269115, 0.016246599960140884, 0.016636200016364455];46;1;0.04979239997919649;8.tif;mask.tiff;-0.14;right;['right'];0.4293718000408262;1;1.464;3.729730400023982;24
190;S05;A;pre;2;60.290358330661455;[0.01710669999010861, 0.01664259994868189, 0.016227400046773255, 0.017028399975970387];10;2;0.04989839997142553;3.tif;mask.tiff;-0.14;left;['left'];0.24026400002185255;1;1.32;3.406773000024259;36
191;S05;A;pre;2;60.290358330661455;[0.016631499980576336, 0.016745800036005676, 0.01776289998088032, 0.015529899974353611];59;3;0.05003859999123961;3.tif;mask.tiff;0.14;left;['left'];0.6691112999105826;0;0.66;3.1695617999648675;53
192;S05;A;pre;2;60.290358330661455;[0.016347800032235682, 0.016827599960379303, 0.016806600033305585, 0.016701699933037162];71;4;0.05033589992672205;8.tif;mask.tiff;0.14;right;['right'];0.5666847999673337;1;0.695;3.1001195999560878;73
193;S05;A;pre;2;60.290358330661455;[0.01696000003721565, 0.016386999981477857, 0.016498500015586615, 0.016587599995546043];58;3;0.049473099992610514;3.tif;mask.tiff;-0.14;left;['left'];0.3845978999743238;1;1.813;4.034515399951488;52
194;S05;A;pre;2;60.290358330661455;[0.015404899953864515, 0.01744740002322942, 0.015729399980045855, 0.017624400090426207];47;1;0.05080120009370148;8.tif;mask.tiff;0.14;right;['left'];0.5138155999593437;0;1.052;3.9634037000359967;25
195;S05;A;pre;2;60.290358330661455;[0.01662769995164126, 0.016783500090241432, 0.01675830001477152, 0.01662349991966039];55;2;0.05016530002467334;8.tif;mask.tiff;0.14;right;['right'];0.1671038999920711;1;0.736;2.7506626999238506;41
196;S05;A;pre;2;60.290358330661455;[0.01719529996626079, 0.01615720009431243, 0.01713489997200668, 0.0164072000188753];78;5;0.04969930008519441;8.tif;mask.tiff;-0.14;right;['right'];0.46980919991619885;1;0.897;3.2029898000182584;88
197;S05;A;pre;2;60.290358330661455;[0.017055399948731065, 0.015601800056174397, 0.017099599936045706, 0.016609600046649575];1;1;0.04931100003886968;2.tif;mask.tiff;0.14;left;['left'];0.15975320001598448;1;1.112;3.1096474999794737;19
198;S05;A;pre;2;60.290358330661455;[0.013456200016662478, 0.016540899989195168, 0.016913200030103326, 0.016745900036767125];85;3;0.05020000005606562;blank.tiff;mask.tiff;0.14;a;['right'];0.7058641000185162;0;0.622;3.171935399994254;49
199;S05;A;pre;2;60.290358330661455;[0.0159675000468269, 0.016855699941515923, 0.016871900064870715, 0.016683300025761127];64;4;0.050410900032147765;2.tif;mask.tiff;-0.14;left;['left'];0.5992375999921933;1;0.754;3.198837299947627;66
200;S05;A;pre;3;60.290358330661455;[0.01642769994214177, 0.016749100061133504, 0.016656999941915274, 0.017365200095809996];29;4;0.050771300098858774;7.tif;mask.tiff;0.14;right;['right'];1.1092108000302687;1;1.516;4.4761089000385255;71
201;S05;A;pre;3;60.290358330661455;[0.0168936001136899, 0.016286399913951755, 0.016914900043047965, 0.016368399956263602];26;4;0.04956969991326332;3.tif;mask.tiff;-0.14;left;['left'];0.5365688999881968;1;2.029;4.402699000085704;68
202;S05;A;pre;3;60.290358330661455;[0.016563300043344498, 0.016306999954394996, 0.016980400076135993, 0.01683829992543906];41;1;0.05012569995597005;2.tif;mask.tiff;0.14;left;['left'];0.35682500002440065;1;1.958;4.156872699968517;19
203;S05;A;pre;3;60.290358330661455;[0.015999300056137145, 0.01687389996368438, 0.016511499998159707, 0.01727860001847148];39;5;0.050663999980315566;8.tif;mask.tiff;0.14;right;['right'];0.13194120000116527;1;0.898;2.86441909999121;89
204;S05;A;pre;3;60.290358330661455;[0.016180200036615133, 0.016749799950048327, 0.01689319999422878, 0.016111999982967973];42;1;0.04975499992724508;3.tif;mask.tiff;-0.14;left;['left'];0.15656470006797463;1;0.851;2.856505300034769;20
205;S05;A;pre;3;60.290358330661455;[0.01636290003079921, 0.017120899981819093, 0.016739999991841614, 0.016530700027942657];38;5;0.050391600001603365;8.tif;mask.tiff;-0.14;right;['right'];0.399714200058952;1;1.569;3.816159800044261;88
206;S05;A;pre;3;60.290358330661455;[0.013124199933372438, 0.017480500042438507, 0.01601030002348125, 0.01645180000923574];89;5;0.0499426000751555;blank.tiff;mask.tiff;0.14;a;['right'];1.108473499887623;0;0.706;3.65821549994871;81
207;S05;A;pre;3;60.290358330661455;[0.01622230000793934, 0.016571399988606572, 0.016803400008939207, 0.016774300020188093];65;4;0.05014910001773387;2.tif;mask.tiff;0.14;left;['left'];1.4199558000545949;1;1.097;4.352785399998538;67
208;S05;A;pre;3;60.290358330661455;[0.01678830001037568, 0.01678639999590814, 0.016621200018562376, 0.016520699951797724];27;4;0.04992829996626824;3.tif;mask.tiff;0.14;left;['left'];0.5091502999421209;1;1.183;3.5252095999894664;69
209;S05;A;pre;3;60.290358330661455;[0.016483200015500188, 0.01657039998099208, 0.017091199988499284, 0.016609600046649575];20;3;0.05027120001614094;7.tif;mask.tiff;-0.14;right;['right'];0.44615980004891753;1;0.871;3.162846399936825;54
210;S05;A;pre;3;60.290358330661455;[0.016666599898599088, 0.016684000031091273, 0.016935099964030087, 0.01671990007162094];50;2;0.0503390000667423;3.tif;mask.tiff;-0.14;left;['left'];1.019153300090693;1;0.875;3.7355677998857573;36
211;S05;A;pre;3;60.290358330661455;[0.014345200033858418, 0.017021700041368604, 0.015623099985532463, 0.017740899929776788];78;5;0.050385699956677854;8.tif;mask.tiff;-0.14;right;['right'];0.6483493000268936;1;0.835;3.3314691999694332;88
212;S05;A;pre;3;60.290358330661455;[0.016784399980679154, 0.01675720000639558, 0.016743100015446544, 0.01739549997728318];44;1;0.0508957999991253;7.tif;mask.tiff;-0.14;right;['right'];0.6284495999570936;1;1.213;3.6794172000372782;22
213;S05;A;pre;3;60.290358330661455;[0.016969799995422363, 0.016514599905349314, 0.016037900000810623, 0.016988600022159517];22;3;0.049541099928319454;8.tif;mask.tiff;-0.14;right;['right'];0.7058277999749407;1;0.887;3.4400607999414206;56
214;S05;A;pre;3;60.290358330661455;[0.017055799951776862, 0.01664599997457117, 0.016845300095155835, 0.016443199943751097];17;3;0.0499345000134781;2.tif;mask.tiff;0.14;left;['left'];0.428108699969016;1;0.88;3.145189299946651;51
215;S05;A;pre;3;60.290358330661455;[0.017124800011515617, 0.01669339998625219, 0.01659860007930547, 0.016598799964413047];86;4;0.049890800029970706;blank.tiff;mask.tiff;-0.14;a;['left'];1.047231899923645;0;0.769;3.647387700038962;64
216;S05;A;pre;3;60.290358330661455;[0.016057400032877922, 0.01695389999076724, 0.016787600005045533, 0.016505699953995645];64;4;0.05024719994980842;2.tif;mask.tiff;-0.14;left;['left'];0.5572894000215456;1;1.365;3.7569281000178307;66
217;S05;A;pre;3;60.290358330661455;[0.01689640001859516, 0.01641050004400313, 0.016596199944615364, 0.016467400011606514];95;3;0.04947410000022501;blank.tiff;mask.tiff;0.14;a;['right'];1.0031357000116259;0;0.71;3.553153899963945;49
218;S05;A;pre;3;60.290358330661455;[0.016211000038310885, 0.016749999951571226, 0.01645490003284067, 0.016827199957333505];81;1;0.0500320999417454;blank.tiff;mask.tiff;0.14;a;['right'];0.774044799967669;0;1.315;3.9247735999524593;17
219;S05;A;pre;3;60.290358330661455;[0.016649099998176098, 0.01693789998535067, 0.0170107000740245, 0.016193399904295802];91;1;0.05014199996367097;blank.tiff;mask.tiff;0.14;a;['right'];1.187227499904111;0;1.136;4.170854799915105;17
220;S05;A;pre;3;60.290358330661455;[0.0163376999553293, 0.01687849999871105, 0.016517300042323768, 0.017129700048826635];88;5;0.05052550008986145;blank.tiff;mask.tiff;-0.14;a;['right'];0.3519240999594331;0;0.865;3.0532847000285983;80
221;S05;A;pre;3;60.290358330661455;[0.016489799949340522, 0.017205500043928623, 0.016727800015360117, 0.01725919998716563];7;1;0.05119250004645437;8.tif;mask.tiff;0.14;right;['right'];0.7875427000690252;1;1.017;3.637219400028698;25
222;S05;A;pre;3;60.290358330661455;[0.015481900074519217, 0.01662489993032068, 0.01631380000617355, 0.017182699986733496];40;1;0.05012139992322773;2.tif;mask.tiff;-0.14;left;['left'];2.1844334000488743;1;0.868;4.885742599959485;18
223;S05;A;pre;3;60.290358330661455;[0.01677770004607737, 0.016969899996183813, 0.016136999940499663, 0.016802099999040365];34;5;0.04990899993572384;3.tif;mask.tiff;-0.14;left;['left'];0.6155089000239968;1;1.092;3.548746000044048;84
224;S05;A;pre;3;60.290358330661455;[0.017369500012136996, 0.015963300014846027, 0.017124000005424023, 0.016855099936947227];3;1;0.049942399957217276;3.tif;mask.tiff;0.14;left;['left'];0.4376680999994278;1;0.668;2.9368701999774203;21
225;S05;A;pre;3;60.290358330661455;[0.016952000092715025, 0.01622619992122054, 0.016744000022299588, 0.016320400056429207];60;3;0.049290599999949336;7.tif;mask.tiff;-0.14;right;['right'];0.8763296999968588;1;0.782;3.492994000087492;54
226;S05;A;pre;3;60.290358330661455;[0.016326899989508092, 0.017144400044344366, 0.016364700044505298, 0.016435900004580617];25;4;0.04994500009343028;2.tif;mask.tiff;0.14;left;['left'];0.45348430005833507;1;0.729;3.020045599900186;67
227;S05;A;pre;3;60.290358330661455;[0.016454500029794872, 0.017415700014680624, 0.016232999972999096, 0.01628149999305606];72;5;0.04993019998073578;2.tif;mask.tiff;-0.14;left;['left'];0.6925787000218406;1;0.773;3.3093033999903128;82
228;S05;A;pre;3;60.290358330661455;[0.016215799958445132, 0.017307000001892447, 0.016049799975007772, 0.01677050010766834];53;2;0.05012730008456856;7.tif;mask.tiff;0.14;right;['right'];1.3711428999667987;1;0.775;3.9874983000336215;39
229;S05;A;pre;3;60.290358330661455;[0.011450699996203184, 0.017676800023764372, 0.015328399953432381, 0.01802509999834001];49;2;0.051030299975536764;2.tif;mask.tiff;0.14;left;['left'];0.4826335000107065;1;1.087;4.053947600070387;35
230;S05;A;pre;3;60.290358330661455;[0.01649900001939386, 0.016547800041735172, 0.01676249993033707, 0.017742000054568052];47;1;0.051052300026640296;8.tif;mask.tiff;0.14;right;['right'];0.6739559998968616;1;1.103;3.607524499995634;25
231;S05;A;pre;3;60.290358330661455;[0.01730229996610433, 0.01613470003940165, 0.016862399992533028, 0.016672799945808947];76;5;0.049669899977743626;7.tif;mask.tiff;-0.14;right;['right'];1.38169310009107;1;0.852;4.064464499941096;86
232;S05;A;pre;3;60.290358330661455;[0.01667069992981851, 0.016599700087681413, 0.016843899968080223, 0.01621050003450364];28;4;0.049654100090265274;7.tif;mask.tiff;-0.14;right;['right'];0.8995873000239953;1;0.884;3.615347299957648;70
233;S05;A;pre;3;60.290358330661455;[0.023835700005292892, 0.008305400027893484, 0.017492199898697436, 0.015366600011475384];0;1;0.041164199938066304;2.tif;mask.tiff;-0.14;left;['left'];0.5219943999545649;1;0.791;3.1550429000053555;18
234;S05;A;pre;3;60.290358330661455;[0.017058800091035664, 0.01673609996214509, 0.015950200031511486, 0.017325100023299456];98;5;0.05001140001695603;blank.tiff;mask.tiff;-0.14;a;['left'];1.319258700008504;0;0.722;3.8860667999833822;80
235;S05;A;pre;3;60.290358330661455;[0.01608410000335425, 0.01708599994890392, 0.016853800043463707, 0.016065599978901446];18;3;0.05000539997126907;3.tif;mask.tiff;-0.14;left;['left'];0.5164041999960318;1;0.932;3.2833492999197915;52
236;S05;A;pre;3;60.290358330661455;[0.014381399960257113, 0.015756000066176057, 0.016096699982881546, 0.017275799997150898];58;3;0.0491285000462085;3.tif;mask.tiff;-0.14;left;['left'];0.4504000999731943;1;0.785;3.0668008000357077;52
237;S05;A;pre;3;60.290358330661455;[0.017052500043064356, 0.015595999895595014, 0.017249600030481815, 0.016447499976493418];11;2;0.04929309990257025;3.tif;mask.tiff;0.14;left;['right'];0.8388018000405282;0;0.829;3.5055053000105545;37
238;S05;A;pre;3;60.290358330661455;[0.011416099965572357, 0.016876400099135935, 0.016326799988746643, 0.017380299977958202];99;5;0.05058350006584078;blank.tiff;mask.tiff;0.14;a;['right'];0.9752241999376565;0;0.739;4.615851900074631;81
239;S05;A;pre;3;60.290358330661455;[0.01665170001797378, 0.016674600075930357, 0.016828299965709448, 0.01627989998087287];16;3;0.049782800022512674;2.tif;mask.tiff;-0.14;left;['left'];0.4962581000290811;1;0.768;3.112891700002365;50
240;S05;A;pre;3;60.290358330661455;[0.016340500093065202, 0.01709189999382943, 0.016411999939009547, 0.016631399979814887];6;1;0.05013529991265386;8.tif;mask.tiff;-0.14;right;['right'];0.7081512999720871;1;0.599;3.14097980002407;24
241;S05;A;pre;3;60.290358330661455;[0.015914799994789064, 0.016796199954114854, 0.01647130004130304, 0.017579899984411895];43;1;0.05084739997982979;3.tif;mask.tiff;0.14;left;['left'];0.12704549997579306;1;1.041;3.0105264000594616;21
242;S05;A;pre;3;60.290358330661455;[0.01606019993778318, 0.017626899993047118, 0.016157099977135658, 0.016609900048933923];75;5;0.0503939000191167;3.tif;mask.tiff;0.14;left;['left'];0.16942689998541027;1;0.84;2.852489999961108;85
243;S05;A;pre;3;60.290358330661455;[0.014904699986800551, 0.017488099983893335, 0.01584000000730157, 0.01661289995536208];92;2;0.049940999946556985;blank.tiff;mask.tiff;-0.14;a;['right'];0.4267798999790102;0;0.831;3.0926961000077426;32
244;S05;A;pre;3;60.290358330661455;[0.016366099938750267, 0.016582900076173246, 0.017055299947969615, 0.016058400040492415];79;5;0.04969660006463528;8.tif;mask.tiff;0.14;right;['right'];0.1794713999843225;0;1.558;3.579764200025238;89
245;S05;A;pre;3;60.290358330661455;[0.013398400042206049, 0.018499600002542138, 0.01554189994931221, 0.0163334000390023];85;3;0.05037489999085665;blank.tiff;mask.tiff;0.14;a;['right'];0.6604752000421286;0;1.01;3.5101456000702456;49
246;S05;A;pre;3;60.290358330661455;[0.016352000064216554, 0.017065699910745025, 0.016319600050337613, 0.016789000015705824];77;5;0.05017429997678846;7.tif;mask.tiff;0.14;right;['right'];1.0049269999144599;1;0.925;3.7716584999579936;87
247;S05;A;pre;3;60.290358330661455;[0.016600900096818805, 0.016936999978497624, 0.01627519994508475, 0.01689920003991574];8;2;0.050111399963498116;2.tif;mask.tiff;-0.14;left;['left'];0.3782680000877008;1;1.114;3.3277684999629855;34
248;S05;A;pre;3;60.290358330661455;[0.020178699982352555, 0.012535999994724989, 0.016836700029671192, 0.01710229995660484];31;4;0.04647499998100102;8.tif;mask.tiff;0.14;right;['right'];0.09033320005983114;1;0.733;2.6610350999981165;73
249;S05;A;pre;3;60.290358330661455;[0.01652710000053048, 0.01693789998535067, 0.016400900087319314, 0.01657480001449585];51;2;0.04991360008716583;3.tif;mask.tiff;0.14;left;['left'];0.22685699991416186;1;0.804;2.860908200033009;37
250;S05;A;pre;3;60.290358330661455;[0.01631830004043877, 0.017707100021652877, 0.015808299998752773, 0.01622929994482547];73;5;0.04974469996523112;2.tif;mask.tiff;0.14;left;['left'];2.6711017000488937;1;1.087;6.228389199939556;83
251;S05;A;pre;3;60.290358330661455;[0.015346699976362288, 0.016294299974106252, 0.017168399994261563, 0.016172400093637407];63;3;0.04963510006200522;8.tif;mask.tiff;0.14;right;['right'];0.44832920003682375;1;0.885;3.181713700061664;57
252;S05;A;pre;3;60.290358330661455;[0.0175984000088647, 0.015636299969628453, 0.017123600002378225, 0.016201100079342723];93;2;0.0489610000513494;blank.tiff;mask.tiff;0.14;a;['right'];0.12491050001699477;0;0.872;2.8407089000102133;33
253;S05;A;pre;3;60.290358330661455;[0.016293999971821904, 0.016977400053292513, 0.017157099908217788, 0.016373799997381866];24;4;0.05050829995889217;2.tif;mask.tiff;-0.14;left;['left'];0.21458939998410642;1;0.837;2.881077600060962;66
254;S05;A;pre;3;60.290358330661455;[0.016799099976196885, 0.016394500038586557, 0.017139899893663824, 0.016034700092859566];21;3;0.04956910002510995;7.tif;mask.tiff;0.14;right;['right'];1.8484464000212029;1;0.738;4.431860700016841;55
255;S05;A;pre;3;60.290358330661455;[0.01609009993262589, 0.016675099963322282, 0.017611400107853115, 0.015682399971410632];13;2;0.04996890004258603;7.tif;mask.tiff;0.14;right;['right'];0.7271466000238433;1;0.805;3.3768337999936193;39
256;S05;A;pre;3;60.290358330661455;[0.01655409997329116, 0.016535799950361252, 0.016652900027111173, 0.016718900064006448];74;5;0.04990760004147887;3.tif;mask.tiff;-0.14;left;['left'];0.5031804000027478;1;0.904;3.236351600033231;84
257;S05;A;pre;3;60.290358330661455;[0.01708310004323721, 0.016258099931292236, 0.016580100054852664, 0.016666200011968613];37;5;0.04950439999811351;7.tif;mask.tiff;0.14;right;['right'];0.6414529999019578;1;1.243;3.7243483000202104;87
258;S05;A;pre;3;60.290358330661455;[0.016662699985317886, 0.016919100075028837, 0.016340099973604083, 0.016362000023946166];82;2;0.049621200072579086;blank.tiff;mask.tiff;-0.14;a;['right'];1.353486799984239;0;0.769;3.953463300014846;32
259;S05;A;pre;3;60.290358330661455;[0.016532400040887296, 0.01664429996162653, 0.016533000045455992, 0.016928600030951202];5;1;0.050105900038033724;7.tif;mask.tiff;0.14;right;['right'];0.8721618000417948;1;0.904;3.622067399905063;23
260;S05;A;pre;3;60.290358330661455;[0.017076599993743002, 0.017824699985794723, 0.015960799995809793, 0.016183400060981512];57;3;0.04996890004258603;2.tif;mask.tiff;0.14;left;['left'];1.2989550000056624;1;0.872;4.015306400018744;51
261;S05;A;pre;3;60.290358330661455;[0.01642659993376583, 0.017107899999246, 0.016445500077679753, 0.016441799933090806];68;4;0.04999520001001656;7.tif;mask.tiff;-0.14;right;['right'];0.4660493000410497;1;0.945;3.249502500053495;70
262;S05;A;pre;3;60.290358330661455;[0.014358400017954409, 0.017123700003139675, 0.016547400038689375, 0.016781099955551326];97;4;0.050452199997380376;blank.tiff;mask.tiff;0.14;a;['right'];0.8159183000680059;0;2.804;5.465757100027986;65
263;S05;A;pre;3;60.290358330661455;[0.016443799948319793, 0.01698380010202527, 0.016859599971212447, 0.016238900017924607];32;5;0.050082300091162324;2.tif;mask.tiff;-0.14;left;['left'];0.4948852000525221;1;0.785;3.1124100000597537;82
264;S05;A;pre;3;60.290358330661455;[0.01710499997716397, 0.016657400061376393, 0.016751899966038764, 0.016653600032441318];14;2;0.050062900059856474;8.tif;mask.tiff;-0.14;right;['right'];0.4530282999621704;1;0.798;3.086177399964072;40
265;S05;A;pre;3;60.290358330661455;[0.015992000000551343, 0.016860999981872737, 0.01614980003796518, 0.017178599955514073];80;1;0.05018939997535199;blank.tiff;mask.tiff;-0.14;a;['right'];1.219594500027597;0;0.906;4.637041400070302;16
266;S05;A;pre;3;60.290358330661455;[0.016564100049436092, 0.017105899984017015, 0.01637900003697723, 0.016675999970175326];33;5;0.05016089999116957;2.tif;mask.tiff;0.14;left;['left'];0.3235616999445483;1;0.85;3.0068238000385463;83
267;S05;A;pre;3;60.290358330661455;[0.0167184000601992, 0.016523799975402653, 0.016972200013697147, 0.016810899949632585];52;2;0.050306899938732386;7.tif;mask.tiff;-0.14;right;['right'];1.1324454999994487;1;1.056;4.03323169995565;38
268;S05;A;pre;3;60.290358330661455;[0.016672200057655573, 0.016908999998122454, 0.016222800011746585, 0.017091399990022182];96;4;0.05022319999989122;blank.tiff;mask.tiff;-0.14;a;['right'];0.561825199984014;0;0.738;3.7618405000539497;64
269;S05;A;pre;3;60.290358330661455;[0.016852900036610663, 0.01657179999165237, 0.016319200047291815, 0.016624099924229085];1;1;0.04951509996317327;2.tif;mask.tiff;0.14;left;['left'];1.2272174999816343;1;0.764;3.828325100010261;19
270;S05;A;pre;3;60.290358330661455;[0.01612289994955063, 0.017066200030967593, 0.01674800005275756, 0.017116599949076772];4;1;0.050930800032801926;7.tif;mask.tiff;-0.14;right;['right'];0.5264572000596672;1;0.765;3.1261596999829635;22
271;S05;A;pre;3;60.290358330661455;[0.016135300043970346, 0.016732199932448566, 0.01635669998358935, 0.01673919998575002];59;3;0.04982809990178794;3.tif;mask.tiff;0.14;left;['left'];0.11889269994571805;1;0.901;2.852815799997188;53
272;S05;A;pre;3;60.290358330661455;[0.01659390004351735, 0.016793400049209595, 0.01659399992786348, 0.016852800035849214];71;4;0.05024020001292229;8.tif;mask.tiff;0.14;right;['left'];0.4335591000271961;0;1.236;3.500493499916047;73
273;S05;A;pre;3;60.290358330661455;[0.017042399966157973, 0.016096899984404445, 0.017239299952052534, 0.016487800050526857];61;3;0.049823999986983836;7.tif;mask.tiff;0.14;right;['right'];0.7767596000339836;1;0.778;3.392935600015335;55
274;S05;A;pre;3;60.290358330661455;[0.017202500021085143, 0.016258700052276254, 0.01688109990209341, 0.016313400003127754];90;1;0.04945319995749742;blank.tiff;mask.tiff;-0.14;a;['right'];0.20515390008222312;0;1.132;3.171531500061974;16
275;S05;A;pre;3;60.290358330661455;[0.016048100078478456, 0.016936699976213276, 0.016811999958008528, 0.016287700040265918];55;2;0.05003639997448772;8.tif;mask.tiff;0.14;right;['right'];1.3460588000016287;0;1.057;4.895731099997647;41
276;S05;A;pre;3;60.290358330661455;[0.017036400036886334, 0.01625760004390031, 0.016846899990923703, 0.01692600001115352];84;3;0.05003050004597753;blank.tiff;mask.tiff;-0.14;a;['right'];1.2199094999814406;0;0.807;3.870497499941848;48
277;S05;A;pre;3;60.290358330661455;[0.017884699977003038, 0.015646399930119514, 0.0165631000418216, 0.016930000041611493];67;4;0.049139500013552606;3.tif;mask.tiff;0.14;left;['left'];0.4529340999433771;1;0.795;3.0860525999451056;69
278;S05;A;pre;3;60.290358330661455;[0.016556199989281595, 0.01636580005288124, 0.01692849991377443, 0.016298400005325675];35;5;0.04959269997198135;3.tif;mask.tiff;0.14;left;['left'];0.7570109000662342;1;1.144;3.7401362999808043;85
279;S05;A;pre;3;60.290358330661455;[0.016953099984675646, 0.01656120002735406, 0.01677190000191331, 0.016381400055252016];62;3;0.049714500084519386;8.tif;mask.tiff;-0.14;right;['right'];0.8572581999469548;1;0.762;3.4570150999352336;56
280;S05;A;pre;3;60.290358330661455;[0.016839700052514672, 0.016787200001999736, 0.016660999972373247, 0.016441200044937432];19;3;0.049889400019310415;3.tif;mask.tiff;0.14;left;['right'];0.31391429994255304;1;1.294;3.5375009000999853;53
281;S05;A;pre;3;60.290358330661455;[0.01691999996546656, 0.01642530004028231, 0.016989100025966763, 0.01646369998343289];66;4;0.04987810004968196;3.tif;mask.tiff;-0.14;left;['left'];0.18870779999997467;1;0.984;3.0056424000067636;68
282;S05;A;pre;3;60.290358330661455;[0.01643710001371801, 0.01633180002681911, 0.01681930001359433, 0.01714929996524006];12;2;0.0503004000056535;7.tif;mask.tiff;-0.14;right;['right'];1.165596800041385;1;1.408;4.415633199969307;38
283;S05;A;pre;3;60.290358330661455;[0.0172949000261724, 0.015480199945159256, 0.017179999966174364, 0.016699500032700598];30;4;0.04935969994403422;8.tif;mask.tiff;-0.14;right;['right'];0.8411887999391183;1;0.981;3.657316799974069;72
284;S05;A;pre;3;60.290358330661455;[0.017101399949751794, 0.015717200003564358, 0.01749780005775392, 0.015907399938441813];94;3;0.04912239999976009;blank.tiff;mask.tiff;-0.14;a;['left'];0.48583769996184856;0;0.85;3.1690892999758944;48
285;S05;A;pre;3;60.290358330661455;[0.01663669990375638, 0.015920900041237473, 0.017106199986301363, 0.016344500007107854];45;1;0.04937160003464669;7.tif;mask.tiff;0.14;right;['right'];0.8533942999783903;1;0.985;3.670114399981685;23
286;S05;A;pre;3;60.290358330661455;[0.013806000002659857, 0.01732740004081279, 0.015865199966356158, 0.016610399936325848];70;4;0.0498029999434948;8.tif;mask.tiff;-0.14;right;['right'];0.9297565999440849;1;0.658;3.429184400010854;72
287;S05;A;pre;3;60.290358330661455;[0.01654370001051575, 0.016886799945496023, 0.017113500041887164, 0.016166599933058023];2;1;0.05016689992044121;3.tif;mask.tiff;-0.14;left;['left'];0.7231873000273481;1;0.832;3.390390499960631;20
288;S05;A;pre;3;60.290358330661455;[0.016549200052395463, 0.016673099948093295, 0.016683700028806925, 0.016557499999180436];87;4;0.049914299976080656;blank.tiff;mask.tiff;0.14;a;['left'];0.5710305999964476;0;0.672;3.0881212999811396;65
289;S05;A;pre;3;60.290358330661455;[0.016534899943508208, 0.01645930006634444, 0.016829799977131188, 0.016400599968619645];36;5;0.04968970001209527;7.tif;mask.tiff;-0.14;right;['right'];0.9361247000051662;1;1.037;4.502462500007823;86
290;S05;A;pre;3;60.290358330661455;[0.01641469995956868, 0.01753650000318885, 0.016092199948616326, 0.01658700010739267];15;2;0.05021570005919784;8.tif;mask.tiff;0.14;right;['left'];0.7084862000774592;0;0.769;3.3083078999770805;41
291;S05;A;pre;3;60.290358330661455;[0.016707199974916875, 0.01694390003103763, 0.01607989997137338, 0.017051000031642616];23;3;0.050074800034053624;8.tif;mask.tiff;0.14;right;['right'];1.0899747000075877;1;0.808;4.539748599985614;57
292;S05;A;pre;3;60.290358330661455;[0.01583059993572533, 0.01771699998062104, 0.015870500006712973, 0.01640429999679327];83;2;0.04999179998412728;blank.tiff;mask.tiff;0.14;a;['left'];0.9915573999751359;0;3.143;5.974187199957669;33
293;S05;A;pre;3;60.290358330661455;[0.016053599887527525, 0.017363500082865357, 0.016320099937729537, 0.016503300052136183];10;2;0.05018690007273108;3.tif;mask.tiff;-0.14;left;['left'];0.6336584000382572;1;0.755;3.233462799922563;36
294;S05;A;pre;3;60.290358330661455;[0.013649399974383414, 0.017878999933600426, 0.016064700088463724, 0.016107399947941303];48;2;0.05005109997000545;2.tif;mask.tiff;-0.14;left;['left'];0.33553919999394566;1;0.824;3.002429599990137;34
295;S05;A;pre;3;60.290358330661455;[0.01634510001167655, 0.01663870003540069, 0.017061799997463822, 0.016110099968500435];69;4;0.049810600001364946;7.tif;mask.tiff;0.14;right;['right'];1.9298204000806436;1;0.616;4.3805254000471905;71
296;S05;A;pre;3;60.290358330661455;[0.01663980004377663, 0.01687399996444583, 0.017137199989520013, 0.015991799999028444];56;3;0.05000299995299429;2.tif;mask.tiff;-0.14;left;['left'];0.3999616000801325;1;0.943;3.1803188000340015;50
297;S05;A;pre;3;60.290358330661455;[0.015868399990722537, 0.017320799990557134, 0.016266999999061227, 0.017128600040450692];9;2;0.05071640003006905;2.tif;mask.tiff;0.14;left;['left'];1.5335822999477386;1;0.881;4.250084799947217;35
298;S05;A;pre;3;60.290358330661455;[0.013424600008875132, 0.016856899950653315, 0.016239600023254752, 0.017211299971677363];54;2;0.05030779994558543;8.tif;mask.tiff;-0.14;right;['right'];1.2262959000654519;1;0.766;3.8277812000596896;40
299;S05;A;pre;3;60.290358330661455;[0.0163450000109151, 0.017117999959737062, 0.016846299986355007, 0.016556300106458366];46;1;0.050520600052550435;8.tif;mask.tiff;-0.14;right;['right'];0.9701493999455124;1;0.772;3.5869144999887794;24
300;S05;A;pre;4;60.290358330661455;[0.01635239995084703, 0.016480999998748302, 0.01658070005942136, 0.016884000040590763];67;4;0.049945700098760426;3.tif;mask.tiff;0.14;left;['left'];0.6212637000717223;1;0.775;3.237856100080535;69
301;S05;A;pre;4;60.290358330661455;[0.017437299946323037, 0.016295600100420415, 0.016504299943335354, 0.017424799967557192];13;2;0.05022470001131296;7.tif;mask.tiff;0.14;right;['right'];0.8908538999967277;1;0.805;4.191069300053641;39
302;S05;A;pre;4;60.290358330661455;[0.017279899911955, 0.016321000060997903, 0.016698700026609004, 0.01657320000231266];45;1;0.04959290008991957;7.tif;mask.tiff;0.14;right;['right'];1.4875032999552786;1;0.84;4.170303300023079;23
303;S05;A;pre;4;60.290358330661455;[0.01598049991298467, 0.016483500017784536, 0.016684900037944317, 0.017164599965326488];6;1;0.05033300002105534;8.tif;mask.tiff;-0.14;right;['right'];0.40461389999836683;1;0.975;3.2172701000235975;24
304;S05;A;pre;4;60.290358330661455;[0.01629009994212538, 0.01648750004824251, 0.017020999919623137, 0.016654400038532913];5;1;0.05016290000639856;7.tif;mask.tiff;0.14;right;['right'];0.3931755000958219;1;0.912;3.1431861000601202;23
305;S05;A;pre;4;60.290358330661455;[0.016026900033466518, 0.01747700001578778, 0.01595849997829646, 0.017033600015565753];7;1;0.05046910000964999;8.tif;mask.tiff;0.14;right;['right'];1.4135615999111906;0;0.898;4.147185399895534;25
306;S05;A;pre;4;60.290358330661455;[0.01821060001384467, 0.01610070001333952, 0.017289299983531237, 0.016250899992883205];52;2;0.04964089998975396;7.tif;mask.tiff;-0.14;right;['right'];1.493620099965483;1;1.198;4.543050999986008;38
307;S05;A;pre;4;60.290358330661455;[0.016993500059470534, 0.016994199948385358, 0.015931000001728535, 0.01663570001255721];93;2;0.0495608999626711;blank.tiff;mask.tiff;0.14;a;['right'];0.358931599999778;0;1.245;3.4428304000757635;33
308;S05;A;pre;4;60.290358330661455;[0.016523899976164103, 0.016856499947607517, 0.016650700010359287, 0.01620740001089871];33;5;0.049714599968865514;2.tif;mask.tiff;0.14;left;['left'];0.309308800031431;1;1.556;3.709289399906993;83
309;S05;A;pre;4;60.290358330661455;[0.016719600069336593, 0.017045199987478554, 0.0163998999632895, 0.016463999985717237];61;3;0.04990909993648529;7.tif;mask.tiff;0.14;right;['right'];1.1506913000484928;1;1.048;4.033527399995364;55
310;S05;A;pre;4;60.290358330661455;[0.01613200001884252, 0.016213599941693246, 0.017203900031745434, 0.017454399960115552];92;2;0.05087189993355423;blank.tiff;mask.tiff;-0.14;a;['right'];1.7621067001018673;0;0.797;4.395315399975516;32
311;S05;A;pre;4;60.290358330661455;[0.01650950009934604, 0.016085899900645018, 0.01717330003157258, 0.016291600069962442];40;1;0.04955080000218004;2.tif;mask.tiff;-0.14;left;['left'];0.47464919998310506;1;0.861;3.1747297999681905;18
312;S05;A;pre;4;60.290358330661455;[0.016360400011762977, 0.017277900013141334, 0.01627979998011142, 0.01681309996638447];28;4;0.050370799959637225;7.tif;mask.tiff;-0.14;right;['right'];1.0202892000088468;1;0.861;3.7201760000316426;70
313;S05;A;pre;4;60.290358330661455;[0.016776900039985776, 0.016659699962474406, 0.016513200011104345, 0.016726700006984174];75;5;0.049899599980562925;3.tif;mask.tiff;0.14;left;['left'];1.1011971000116318;1;0.785;3.7174510000040755;85
314;S05;A;pre;4;60.290358330661455;[0.007738700020126998, 0.01665780006442219, 0.01654489990323782, 0.016710700001567602];73;5;0.04991339996922761;2.tif;mask.tiff;0.14;left;['left'];2.111813599942252;1;0.918;4.861454300000332;83
315;S05;A;pre;4;60.290358330661455;[0.016470700036734343, 0.01654229999985546, 0.016913499915972352, 0.016194300027564168];94;3;0.04965009994339198;blank.tiff;mask.tiff;-0.14;a;['left'];0.798447799985297;0;0.88;3.5156736000208184;48
316;S05;A;pre;4;60.290358330661455;[0.01615099993068725, 0.01626649999525398, 0.016554600093513727, 0.01807250001002103];49;2;0.05089360009878874;2.tif;mask.tiff;0.14;left;['right'];0.3861260999692604;1;0.919;3.1522360000526533;35
317;S05;A;pre;4;60.290358330661455;[0.016567699960432947, 0.016444800072349608, 0.01653749996330589, 0.01682220003567636];79;5;0.04980450007133186;8.tif;mask.tiff;0.14;right;['right'];0.4223768999800086;1;0.702;2.972932399949059;89
318;S05;A;pre;4;60.290358330661455;[0.017110600019805133, 0.016744399908930063, 0.01621030003298074, 0.01653500006068498];53;2;0.04948970000259578;7.tif;mask.tiff;0.14;right;['right'];0.7766246000537649;1;0.736;3.360393699957058;39
319;S05;A;pre;4;60.290358330661455;[0.016277900082059205, 0.01674319989979267, 0.01660299999639392, 0.026570999994874];27;4;0.05991719989106059;3.tif;mask.tiff;0.14;left;['left'];0.6435871999710798;1;0.782;3.260577499982901;69
320;S05;A;pre;4;60.290358330661455;[0.015016500023193657, 0.017037400044500828, 0.01610509993042797, 0.01697770005557686];32;5;0.05012020003050566;2.tif;mask.tiff;-0.14;left;['left'];1.2154768999898806;1;2.46;5.515822899993509;82
321;S05;A;pre;4;60.290358330661455;[0.01699250005185604, 0.016602299991063774, 0.01673329994082451, 0.016597999958321452];71;4;0.049933599890209734;8.tif;mask.tiff;0.14;right;['right'];1.114043700043112;1;0.946;3.897370500024408;73
322;S05;A;pre;4;60.290358330661455;[0.017005100031383336, 0.01631980005186051, 0.017342999926768243, 0.01623980002477765];90;1;0.049902600003406405;blank.tiff;mask.tiff;-0.14;a;['right'];0.8835337000200525;0;1.037;3.7668604000937194;16
323;S05;A;pre;4;60.290358330661455;[0.01581599994096905, 0.017365399980917573, 0.016008200007490814, 0.016925500007346272];4;1;0.05029909999575466;7.tif;mask.tiff;-0.14;right;['right'];0.5008764000376686;1;1.093;3.4342891999986023;22
324;S05;A;pre;4;60.290358330661455;[0.017114299931563437, 0.016028700047172606, 0.01655239996034652, 0.017882200074382126];96;4;0.05046330008190125;blank.tiff;mask.tiff;-0.14;a;['right'];1.0648615000536665;0;0.83;3.7314473999431357;64
325;S05;A;pre;4;60.290358330661455;[0.01701940002385527, 0.01641739998012781, 0.017326500033959746, 0.01673629996366799];81;1;0.05048019997775555;blank.tiff;mask.tiff;0.14;a;['right'];0.8115805999841541;0;0.883;3.5282762000570074;17
326;S05;A;pre;4;60.290358330661455;[0.016235799994319677, 0.016670000040903687, 0.01686790003441274, 0.016232699970714748];69;4;0.04977060004603118;7.tif;mask.tiff;0.14;right;['right'];0.17864279996138066;0;0.85;2.8619384999619797;71
327;S05;A;pre;4;60.290358330661455;[0.016187500092200935, 0.016544499900192022, 0.016399500076659024, 0.01698519999627024];48;2;0.049929199973121285;2.tif;mask.tiff;-0.14;left;['left'];0.5720783999422565;1;1.005;3.4221581999445334;34
328;S05;A;pre;4;60.290358330661455;[0.019418700016103685, 0.01451690006069839, 0.01609289995394647, 0.016582499956712127];82;2;0.04719229997135699;blank.tiff;mask.tiff;-0.14;a;['left'];0.427945000003092;0;2.643;4.910702700028196;32
329;S05;A;pre;4;60.290358330661455;[0.01638479996472597, 0.016924700001254678, 0.016313000000081956, 0.01666209998074919];60;3;0.049899799982085824;7.tif;mask.tiff;-0.14;right;['right'];1.7157742000417784;1;1.201;4.7658350999699906;54
330;S05;A;pre;4;60.290358330661455;[0.0164576000533998, 0.016894000000320375, 0.016619600006379187, 0.01635529997292906];1;1;0.04986889997962862;2.tif;mask.tiff;0.14;left;['left'];0.8696236999239773;1;0.831;3.5358683000085875;19
331;S05;A;pre;4;60.290358330661455;[0.015025599976070225, 0.016231999965384603, 0.01747870002873242, 0.016550299944356084];10;2;0.050260999938473105;3.tif;mask.tiff;-0.14;left;['left'];1.883042800007388;1;0.836;4.5664788000285625;36
332;S05;A;pre;4;60.290358330661455;[0.01671430002897978, 0.0169719000114128, 0.016298200003802776, 0.016958100022748113];54;2;0.05022820003796369;8.tif;mask.tiff;-0.14;right;['right'];1.0960205000592396;1;0.754;3.6962517000501975;40
333;S05;A;pre;4;60.290358330661455;[0.01700760005041957, 0.016188299981877208, 0.01673589996062219, 0.016941200010478497];64;4;0.049865399952977896;2.tif;mask.tiff;-0.14;left;['left'];1.2776021999306977;1;0.803;3.927269499981776;66
334;S05;A;pre;4;60.290358330661455;[0.016643499955534935, 0.016665400005877018, 0.016283600009046495, 0.026257400051690638];26;4;0.05920640006661415;3.tif;mask.tiff;-0.14;left;['left'];1.0903167000506073;1;0.813;3.740343700046651;68
335;S05;A;pre;4;60.290358330661455;[0.0169328999472782, 0.017147300066426396, 0.015882099978625774, 0.01726619992405176];35;5;0.05029559996910393;3.tif;mask.tiff;0.14;left;['left'];0.6723641999997199;1;0.787;3.289819199941121;85
336;S05;A;pre;4;60.290358330661455;[0.0161421000957489, 0.01688010001089424, 0.016744099906645715, 0.016925500007346272];70;4;0.05054969992488623;8.tif;mask.tiff;-0.14;right;['right'];0.5412400000495836;1;0.833;3.2077598000178114;72
337;S05;A;pre;4;60.290358330661455;[0.016487699933350086, 0.016439700033515692, 0.01702060003299266, 0.016550099942833185];59;3;0.05001040000934154;3.tif;mask.tiff;0.14;left;['right'];0.7460120000177994;0;0.869;4.145614099921659;53
338;S05;A;pre;4;60.290358330661455;[0.01712420000694692, 0.015868599992245436, 0.022073599975556135, 0.012122199987061322];87;4;0.05006439995486289;blank.tiff;mask.tiff;0.14;a;['right'];0.5777788000414148;0;1.084;3.493421500083059;65
339;S05;A;pre;4;60.290358330661455;[0.015102699981071055, 0.016593600041233003, 0.016852699918672442, 0.016261300072073936];99;5;0.04970760003197938;blank.tiff;mask.tiff;0.14;a;['right'];2.631330900010653;0;0.73;5.198129200027324;81
340;S05;A;pre;4;60.290358330661455;[0.016586999990977347, 0.017081200028769672, 0.016593300038948655, 0.016616899985820055];39;5;0.05029140005353838;8.tif;mask.tiff;0.14;right;['right'];0.404507500003092;1;0.81;3.0550526999868453;89
341;S05;A;pre;4;60.290358330661455;[0.017164900084026158, 0.016191400005482137, 0.01616549992468208, 0.016980000073090196];80;1;0.049336900003254414;blank.tiff;mask.tiff;-0.14;a;['right'];0.4053521000314504;0;1.033;3.272350599989295;16
342;S05;A;pre;4;60.290358330661455;[0.016861200099810958, 0.017365199979394674, 0.016359500004909933, 0.016363299917429686];91;1;0.05008799990173429;blank.tiff;mask.tiff;0.14;a;['right'];0.793757600011304;0;1.052;3.6940604000119492;17
343;S05;A;pre;4;60.290358330661455;[0.01657310000155121, 0.016349999932572246, 0.016428900067694485, 0.017199199995957315];56;3;0.049978099996224046;2.tif;mask.tiff;-0.14;left;['left'];0.3467818000353873;1;0.846;3.030224099988118;50
344;S05;A;pre;4;60.290358330661455;[0.016115900012664497, 0.01656450005248189, 0.016600799979642034, 0.016582499956712127];0;1;0.04974779998883605;2.tif;mask.tiff;-0.14;left;['left'];0.7646848999429494;1;1.174;3.7811376000754535;18
345;S05;A;pre;4;60.290358330661455;[0.01641040004324168, 0.01676399994175881, 0.01621770008932799, 0.01758069999050349];57;3;0.05056240002159029;2.tif;mask.tiff;0.14;left;['left'];0.7013054999988526;1;0.833;3.368193499976769;51
346;S05;A;pre;4;60.290358330661455;[0.0161972000496462, 0.016923699993640184, 0.0165005000308156, 0.01751549995969981];44;1;0.050939699984155595;7.tif;mask.tiff;-0.14;right;['right'];0.5780782999936491;1;0.79;3.211276200017892;22
347;S05;A;pre;4;60.290358330661455;[0.016421700012870133, 0.01731539994943887, 0.016225400031544268, 0.017577199963852763];34;5;0.0511179999448359;3.tif;mask.tiff;-0.14;left;['left'];1.0396933000301942;1;1.329;4.206843399908394;84
348;S05;A;pre;4;60.290358330661455;[0.009175199898891151, 0.016598200076259673, 0.016381399938836694, 0.01696170005016029];3;1;0.049941300065256655;3.tif;mask.tiff;0.14;left;['left'];1.3153319999109954;1;0.891;4.041665300028399;21
349;S05;A;pre;4;60.290358330661455;[0.014984100009314716, 0.017061399994418025, 0.015284799970686436, 0.017129900050349534];25;4;0.049476100015453994;2.tif;mask.tiff;0.14;left;['left'];0.36936120002064854;1;0.729;2.9359961000736803;67
350;S05;A;pre;4;60.290358330661455;[0.017302899970673025, 0.016514800023287535, 0.016695800004526973, 0.016383400070481002];51;2;0.04959400009829551;3.tif;mask.tiff;0.14;left;['left'];1.164638000074774;1;0.767;3.764497600030154;37
351;S05;A;pre;4;60.290358330661455;[0.016206700005568564, 0.01678059995174408, 0.01648740004748106, 0.017786300042644143];63;3;0.05105430004186928;8.tif;mask.tiff;0.14;right;['right'];0.48389519995544106;1;0.882;3.199973799986765;57
352;S05;A;pre;4;60.290358330661455;[0.016152899945154786, 0.015611400012858212, 0.01668130001053214, 0.01652280008420348];46;1;0.048815500107593834;8.tif;mask.tiff;-0.14;right;['right'];0.6672207999508828;1;0.719;3.2341112999711186;24
353;S05;A;pre;4;60.290358330661455;[0.01743100001476705, 0.016266199992969632, 0.015964599908329546, 0.017604200053028762];30;4;0.04983499995432794;8.tif;mask.tiff;-0.14;right;['right'];0.8851432999363169;1;0.894;3.61857119994238;72
354;S05;A;pre;4;60.290358330661455;[0.01660559989977628, 0.016665900009684265, 0.01628720003645867, 0.0169952999567613];19;3;0.049948400002904236;3.tif;mask.tiff;0.14;left;['left'];1.0642667999491096;1;0.851;3.747439300059341;53
355;S05;A;pre;4;60.290358330661455;[0.01705500006210059, 0.017793499981053174, 0.015332199982367456, 0.01675990002695471];41;1;0.04988559999037534;2.tif;mask.tiff;0.14;left;['left'];0.8636742999078706;1;0.754;3.463772099930793;19
356;S05;A;pre;4;60.290358330661455;[0.01647270005196333, 0.016869000042788684, 0.01605169998947531, 0.016905499971471727];31;4;0.04982620000373572;8.tif;mask.tiff;0.14;right;['right'];0.9420554999960586;1;0.789;3.57480659999419;73
357;S05;A;pre;4;60.290358330661455;[0.017038300051353872, 0.016842099954374135, 0.016726800007745624, 0.02626009995583445];97;4;0.059828999917954206;blank.tiff;mask.tiff;0.14;a;['right'];1.1208556001074612;0;0.989;3.954303800011985;65
358;S05;A;pre;4;60.290358330661455;[0.0173689000075683, 0.016769899986684322, 0.016119000036269426, 0.01764470001216978];21;3;0.05053360003512353;7.tif;mask.tiff;0.14;right;['right'];2.0036979999858886;1;1.43;5.270301299984567;55
359;S05;A;pre;4;60.290358330661455;[0.01736419997178018, 0.01569620007649064, 0.017349799978546798, 0.01639090001117438];15;2;0.04943690006621182;8.tif;mask.tiff;0.14;right;['right'];0.8502700999379158;1;3.04;5.732504399958998;41
360;S05;A;pre;4;60.290358330661455;[0.01663720002397895, 0.016792300040833652, 0.016388299991376698, 0.016399399959482253];72;5;0.0495799999916926;2.tif;mask.tiff;-0.14;left;['left'];1.0390116999624297;1;0.857;3.7381813999963924;82
361;S05;A;pre;4;60.290358330661455;[0.017381099984049797, 0.016167699941433966, 0.016917500062845647, 0.016686399932950735];89;5;0.04977159993723035;blank.tiff;mask.tiff;0.14;a;['right'];0.6288326000794768;0;1.02;3.4949474000604823;81
362;S05;A;pre;4;60.290358330661455;[0.016340299975126982, 0.017217500018887222, 0.016350100049749017, 0.01621279993560165];42;1;0.04978040000423789;3.tif;mask.tiff;-0.14;left;['left'];1.2013573000440374;1;0.858;3.9017444000346586;20
363;S05;A;pre;4;60.290358330661455;[0.016871399944648147, 0.01686690002679825, 0.01656150002963841, 0.016256299917586148];95;3;0.049684699974022806;blank.tiff;mask.tiff;0.14;a;['left'];0.5230230999877676;0;0.78;3.139380299951881;49
364;S05;A;pre;4;60.290358330661455;[0.015138200018554926, 0.017597800004296005, 0.015667099971324205, 0.017638099961914122];38;5;0.05090299993753433;8.tif;mask.tiff;-0.14;right;['right'];1.6154544000746682;1;0.981;4.432150100008585;88
365;S05;A;pre;4;60.290358330661455;[0.01581599994096905, 0.016759200021624565, 0.016892699990421534, 0.016211100039072335];12;2;0.049863000051118433;7.tif;mask.tiff;-0.14;right;['right'];2.2221604000078514;1;1.407;5.472849200014025;38
366;S05;A;pre;4;60.290358330661455;[0.015379399992525578, 0.015834299963898957, 0.01649930002167821, 0.017302599968388677];9;2;0.04963619995396584;2.tif;mask.tiff;0.14;left;['left'];1.2248655000003055;1;0.959;4.024447900010273;35
367;S05;A;pre;4;60.290358330661455;[0.016935799969360232, 0.016421500011347234, 0.01644739997573197, 0.01625910005532205];85;3;0.049128000042401254;blank.tiff;mask.tiff;0.14;a;['right'];0.6273289000382647;0;0.732;3.1939016999676824;49
368;S05;A;pre;4;60.290358330661455;[0.016391600016504526, 0.016726300003938377, 0.017141000018455088, 0.016028399928472936];84;3;0.0498956999508664;blank.tiff;mask.tiff;-0.14;a;['right'];0.6688493000110611;0;0.933;3.4521443999838084;48
369;S05;A;pre;4;60.290358330661455;[0.01646660000551492, 0.017339700018055737, 0.015127500053495169, 0.017431800020858645];18;3;0.04989900009240955;3.tif;mask.tiff;-0.14;left;['left'];0.6142289999406785;1;0.762;3.214468099991791;52
370;S05;A;pre;4;60.290358330661455;[0.01717960007954389, 0.015900099999271333, 0.016662899986840785, 0.01749470003414899];17;3;0.05005770002026111;2.tif;mask.tiff;0.14;left;['left'];0.46344629989471287;1;1.518;3.8298492999747396;51
371;S05;A;pre;4;60.290358330661455;[0.017239299952052534, 0.016533700050786138, 0.016293599968776107, 0.01669610000681132];14;2;0.049523400026373565;8.tif;mask.tiff;-0.14;right;['right'];0.9880721000954509;1;0.835;3.6714480000082403;40
372;S05;A;pre;4;60.290358330661455;[0.017429300001822412, 0.015537400031462312, 0.016945800045505166, 0.016305299941450357];88;5;0.048788500018417835;blank.tiff;mask.tiff;-0.14;a;['left'];1.4001689999131486;0;0.945;4.183472600067034;80
373;S05;A;pre;4;60.290358330661455;[0.016391700017265975, 0.01729599991813302, 0.016324200085364282, 0.01659219991415739];58;3;0.05021239991765469;3.tif;mask.tiff;-0.14;left;['left'];2.2852822000859305;1;0.693;4.818586700013839;52
374;S05;A;pre;4;60.290358330661455;[0.016849699895828962, 0.01660299999639392, 0.016725400113500655, 0.016908799996599555];83;2;0.05023720010649413;blank.tiff;mask.tiff;0.14;a;['right'];0.4758550999686122;0;0.724;3.043429300072603;33
375;S05;A;pre;4;60.290358330661455;[0.01721640001051128, 0.016800299985334277, 0.01716709998436272, 0.016226200037635863];36;5;0.05019360000733286;7.tif;mask.tiff;-0.14;right;['right'];0.4572578000370413;1;0.818;3.1065427000867203;86
376;S05;A;pre;4;60.290358330661455;[0.016607700032182038, 0.017237699939869344, 0.015889400034211576, 0.01705909997690469];11;2;0.05018619995098561;3.tif;mask.tiff;0.14;left;['left'];1.440011200029403;1;0.8;4.073557700030506;37
377;S05;A;pre;4;60.290358330661455;[0.01650220004376024, 0.016620300011709332, 0.01695839990861714, 0.016263100085780025];74;5;0.049841800006106496;3.tif;mask.tiff;-0.14;left;['left'];1.1919819000177085;1;1.185;4.208291499991901;84
378;S05;A;pre;4;60.290358330661455;[0.01517899997998029, 0.016645099967718124, 0.01635090005584061, 0.016536799957975745];20;3;0.04953279998153448;7.tif;mask.tiff;-0.14;right;['right'];1.0991882000816986;1;1.122;4.065824099932797;54
379;S05;A;pre;4;60.290358330661455;[0.01661180006340146, 0.01740399992559105, 0.01564870006404817, 0.01685479993466288];24;4;0.0499074999243021;2.tif;mask.tiff;-0.14;left;['left'];2.471754099940881;1;0.827;5.137467500055209;66
380;S05;A;pre;4;60.290358330661455;[0.017006900045089424, 0.01713889988604933, 0.015965500031597912, 0.01656170003116131];77;5;0.04966609994880855;7.tif;mask.tiff;0.14;right;['right'];1.5134044999722391;1;1.099;4.446225499967113;87
381;S05;A;pre;4;60.290358330661455;[0.013056900002993643, 0.017386000021360815, 0.016296499990858138, 0.017034700023941696];86;4;0.05071720003616065;blank.tiff;mask.tiff;-0.14;a;['right'];1.8251687999581918;0;1.095;4.758746400009841;64
382;S05;A;pre;4;60.290358330661455;[0.016701400047168136, 0.01663420000113547, 0.01731859997380525, 0.016067399992607534];8;2;0.05002019996754825;2.tif;mask.tiff;-0.14;left;['left'];0.8939688999671489;1;0.886;3.610865000053309;34
383;S05;A;pre;4;60.290358330661455;[0.016185899963602424, 0.017107500112615526, 0.017303199972957373, 0.015572299947962165];98;5;0.04998300003353506;blank.tiff;mask.tiff;-0.14;a;['left'];1.5603358999360353;0;114.88;118.43477610009722;80
384;S05;A;pre;4;60.290358330661455;[0.005072599975392222, 0.016497300006449223, 0.01668699993751943, 0.016624500043690205];50;2;0.04980879998765886;3.tif;mask.tiff;-0.14;left;['left'];0.5825068999547511;1;1.374;3.8648134999675676;36
385;S05;A;pre;4;60.290358330661455;[0.008878200082108378, 0.01695419999305159, 0.01700280001387, 0.01643570000305772];65;4;0.05039270000997931;2.tif;mask.tiff;0.14;left;['left'];1.1997700999490917;1;1.351;4.43264520005323;67
386;S05;A;pre;4;60.290358330661455;[0.005434800055809319, 0.015809200005605817, 0.01731539994943887, 0.01616430003196001];2;1;0.0492888999870047;3.tif;mask.tiff;-0.14;left;['left'];0.9604537999257445;1;1.47;4.312569900066592;20
387;S05;A;pre;4;60.290358330661455;[0.017292900010943413, 0.01650939998216927, 0.017381799989379942, 0.01588109997101128];68;4;0.049772299942560494;7.tif;mask.tiff;-0.14;right;['right'];1.1714724999619648;1;0.895;3.973179699969478;70
388;S05;A;pre;4;60.290358330661455;[0.01729330001398921, 0.01654779992531985, 0.017312300042249262, 0.015951699926517904];76;5;0.04981179989408702;7.tif;mask.tiff;-0.14;right;['right'];0.43149089999496937;1;0.888;3.214181700022891;86
389;S05;A;pre;4;60.290358330661455;[0.015565600013360381, 0.01614810002502054, 0.016474199946969748, 0.01774690009187907];16;3;0.05036920006386936;2.tif;mask.tiff;-0.14;left;['left'];1.4626646999968216;1;0.94;4.296193400048651;50
390;S05;A;pre;4;60.290358330661455;[0.011002900078892708, 0.016871699946932495, 0.016368200071156025, 0.017271399963647127];47;1;0.05051129998173565;8.tif;mask.tiff;0.14;right;['right'];2.2792185000143945;1;0.819;4.9788585000205785;25
391;S05;A;pre;4;60.290358330661455;[0.010914699989371002, 0.0167422000085935, 0.016890499973669648, 0.01655830000527203];37;5;0.05019099998753518;7.tif;mask.tiff;0.14;right;['right'];0.6087773999897763;1;1.184;3.7081307000480592;87
392;S05;A;pre;4;60.290358330661455;[0.007573899929411709, 0.016096599982120097, 0.01700280001387, 0.01667090004775673];22;3;0.04977030004374683;8.tif;mask.tiff;-0.14;right;['right'];0.9490279000019655;1;0.925;4.468805399956182;56
393;S05;A;pre;4;60.290358330661455;[0.018783400068059564, 0.01667069992981851, 0.016558700008317828, 0.016833100002259016];43;1;0.050062499940395355;3.tif;mask.tiff;0.14;left;['left'];0.6970431000227109;1;0.774;3.3839619000209495;21
394;S05;A;pre;4;60.290358330661455;[0.005392699968069792, 0.01733479998074472, 0.016380400047637522, 0.01635689998511225];78;5;0.05007210001349449;8.tif;mask.tiff;-0.14;right;['right'];1.0106780000496656;1;0.804;3.6937158000655472;88
395;S05;A;pre;4;60.290358330661455;[0.008976400014944375, 0.016853800043463707, 0.016539899981580675, 0.01677749992813915];29;4;0.05017119995318353;7.tif;mask.tiff;0.14;right;['right'];1.0016607000725344;1;0.816;3.703081699903123;71
396;S05;A;pre;4;60.290358330661455;[0.008740400080569088, 0.017003500019200146, 0.01657739991787821, 0.016928000026382506];66;4;0.05050889996346086;3.tif;mask.tiff;-0.14;left;['left'];1.8848343000281602;1;1.308;5.067575799999759;68
397;S05;A;pre;4;60.290358330661455;[0.012199199991300702, 0.01829469995573163, 0.01609030005056411, 0.017358599929139018];55;2;0.05174359993543476;8.tif;mask.tiff;0.14;right;['right'];0.6913010000716895;1;1.111;3.6915400999132544;41
398;S05;A;pre;4;60.290358330661455;[0.016831599990837276, 0.01747530000284314, 0.015766400028951466, 0.018864799989387393];62;3;0.052106500021182;8.tif;mask.tiff;-0.14;right;['right'];0.5344187000300735;0;0.894;3.3507371000014246;56
399;S05;A;pre;4;60.290358330661455;[0.0060535999946296215, 0.016858500079251826, 0.016671399935148656, 0.0165673999581486];23;3;0.05009729997254908;8.tif;mask.tiff;0.14;right;['right'];0.40905470005236566;1;0.906;3.1919783001067117;57
