;subject;stim;session;block;frame_rate;frame_int;trial_nb;SOA;real_SOA;target;mask;position;cor_ans;obj_rating;obj_RT;subj_rating;subj_RT;trial_duration;trigger
0;S08;A;pre;1;60.11924049270635;[0.015297000005375594, 0.01644139998825267, 0.016876299981959164, 0.016046600008849055];69;4;0.04936429997906089;7.tif;mask.tiff;0.14;right;['right'];0.6255300000193529;1;1.997;4.4819380000117235;71
1;S08;A;pre;1;60.11924049270635;[0.0162014999659732, 0.01692150003509596, 0.017182999989017844, 0.01606940000783652];3;1;0.050173900031950325;3.tif;mask.tiff;0.14;left;['left'];0.16504549997625872;1;1.052;3.065315300016664;21
2;S08;A;pre;1;60.11924049270635;[0.01623270002892241, 0.017348799970932305, 0.016153200005646795, 0.01659860002109781];16;3;0.05010059999767691;2.tif;mask.tiff;-0.14;left;['left'];0.17442799999844283;1;0.812;2.8244877999532036;50
3;S08;A;pre;1;60.11924049270635;[0.01411669998196885, 0.016415800026152283, 0.01669039996340871, 0.01688880001893267];87;4;0.04999500000849366;blank.tiff;mask.tiff;0.14;a;['right'];0.31295970000792295;0;0.815;2.9626805000007153;65
4;S08;A;pre;1;60.11924049270635;[0.015583100030198693, 0.016800899989902973, 0.015508999989833683, 0.01658520003547892];61;3;0.048895100015215576;7.tif;mask.tiff;0.14;right;['right'];0.182357800018508;0;0.943;2.9654416000121273;55
5;S08;A;pre;1;60.11924049270635;[0.015340899990405887, 0.016810000000987202, 0.01636160002090037, 0.01694669999415055];58;3;0.05011830001603812;3.tif;mask.tiff;-0.14;left;['left'];0.15629119996447116;0;0.879;2.8723233999917284;52
6;S08;A;pre;1;60.11924049270635;[0.014264299999922514, 0.016577400034293532, 0.016961999994236976, 0.017111799970734864];34;5;0.05065119999926537;3.tif;mask.tiff;-0.14;left;['left'];0.1979851999785751;0;0.787;2.8317197000142187;84
7;S08;A;pre;1;60.11924049270635;[0.016462800034787506, 0.01583839999511838, 0.017577199963852763, 0.017218100023455918];39;5;0.05063369998242706;8.tif;mask.tiff;0.14;right;['right'];0.1533147000009194;1;1.33;3.320235799998045;89
8;S08;A;pre;1;60.11924049270635;[0.016752899973653257, 0.016696700011380017, 0.016584199969656765, 0.016864700010046363];21;3;0.050145599991083145;7.tif;mask.tiff;0.14;right;['right'];0.3858087000553496;0;0.891;3.119475799961947;55
9;S08;A;pre;1;60.11924049270635;[0.01582209998741746, 0.01663410000037402, 0.016789000015705824, 0.017299600003752857];65;4;0.0507227000198327;2.tif;mask.tiff;0.14;left;['left'];0.36123520002001897;1;0.808;3.0117852999828756;67
10;S08;A;pre;1;60.11924049270635;[0.016560400021262467, 0.01589630002854392, 0.01756119995843619, 0.01564880000660196];17;3;0.04910629999358207;2.tif;mask.tiff;0.14;left;['left'];0.17298899998422712;1;1.0;3.005268100008834;51
11;S08;A;pre;1;60.11924049270635;[0.016818500007502735, 0.016295699984766543, 0.01663379999808967, 0.017270200012717396];81;1;0.05019969999557361;blank.tiff;mask.tiff;0.14;a;['right'];0.18820870004128665;0;0.828;2.8564964000252075;17
12;S08;A;pre;1;60.11924049270635;[0.015959500044118613, 0.016910100006498396, 0.01626509998459369, 0.017165499972179532];32;5;0.05034069996327162;2.tif;mask.tiff;-0.14;left;['left'];0.13119189999997616;1;0.852;2.8310350999818183;82
13;S08;A;pre;1;60.11924049270635;[0.016347500029951334, 0.017415899957995862, 0.016633699997328222, 0.016194400028325617];70;4;0.0502439999836497;8.tif;mask.tiff;-0.14;right;['right'];0.15584630001103505;1;0.873;2.8722012999933213;72
14;S08;A;pre;1;60.11924049270635;[0.01606190000893548, 0.01732290000654757, 0.016330799960996956, 0.016653900034725666];98;5;0.05030760000227019;blank.tiff;mask.tiff;-0.14;a;['left'];0.18119910004315898;0;0.83;2.8478110000141896;80
15;S08;A;pre;1;60.11924049270635;[0.01601050002500415, 0.016725299996323884, 0.01685600000200793, 0.016620300011709332];74;5;0.05020160001004115;3.tif;mask.tiff;-0.14;left;['right'];0.15857859997777268;0;1.014;3.0071855999995023;84
16;S08;A;pre;1;60.11924049270635;[0.016489800007548183, 0.0175166999688372, 0.017446400015614927, 0.01585620001424104];19;3;0.05081929999869317;3.tif;mask.tiff;0.14;left;['left'];0.17753089999314398;1;0.767;2.7784344000392593;53
17;S08;A;pre;1;60.11924049270635;[0.013658399984706193, 0.017055800009984523, 0.016730699979234487, 0.016141300031449646];30;4;0.049927800020668656;8.tif;mask.tiff;-0.14;right;['right'];0.15921349998097867;1;0.944;2.941896500007715;72
18;S08;A;pre;1;60.11924049270635;[0.016666200011968613, 0.017252299992833287, 0.016412600001785904, 0.016841100004967302];88;5;0.05050599999958649;blank.tiff;mask.tiff;-0.14;a;['right'];0.170088000013493;0;1.33;3.3376481999875978;80
19;S08;A;pre;1;60.11924049270635;[0.016605600016191602, 0.017650699999649078, 0.01668430003337562, 0.016194399970117956];31;4;0.050529400003142655;8.tif;mask.tiff;0.14;right;['right'];0.19844919996103272;1;0.808;2.8487906000227667;73
20;S08;A;pre;1;60.11924049270635;[0.01613790000556037, 0.01653490000171587, 0.017489899997599423, 0.01562209997791797];52;2;0.04964689997723326;7.tif;mask.tiff;-0.14;right;['right'];0.1505349999642931;1;1.197;3.1833677999675274;38
21;S08;A;pre;1;60.11924049270635;[0.017015199991874397, 0.017562700028065592, 0.01584160001948476, 0.01643389998935163];89;5;0.04983820003690198;blank.tiff;mask.tiff;0.14;a;['right'];0.14309730002423748;0;0.803;2.7931687000091188;81
22;S08;A;pre;1;60.11924049270635;[0.01698060001945123, 0.016283800010569394, 0.017120299977250397, 0.016062500013504177];43;1;0.04946660000132397;3.tif;mask.tiff;0.14;left;['right'];0.16377249994548038;1;0.958;2.9639499000040814;21
23;S08;A;pre;1;60.11924049270635;[0.01799089997075498, 0.016248000029008836, 0.017015599994920194, 0.015864199958741665];96;4;0.049127799982670695;blank.tiff;mask.tiff;-0.14;a;['left'];0.2165913000353612;0;0.716;2.7667385999811813;64
24;S08;A;pre;1;60.11924049270635;[0.017622699961066246, 0.015935000032186508, 0.017960999975912273, 0.01514660002430901];22;3;0.04904260003240779;8.tif;mask.tiff;-0.14;right;['right'];0.1767709000268951;1;0.834;2.842664399999194;56
25;S08;A;pre;1;60.11924049270635;[0.01738219999242574, 0.016705400019418448, 0.016573900007642806, 0.01664009998785332];90;1;0.04991940001491457;blank.tiff;mask.tiff;-0.14;a;['right'];0.21378300001379102;0;0.71;2.7643668999662623;16
26;S08;A;pre;1;60.11924049270635;[0.016722200030926615, 0.016873199958354235, 0.01589149999199435, 0.01673460000893101];2;1;0.0494992999592796;3.tif;mask.tiff;-0.14;left;['left'];0.3031489999848418;1;0.815;2.9527981000137515;20
27;S08;A;pre;1;60.11924049270635;[0.017306900001130998, 0.015975499991327524, 0.016929500037804246, 0.016477899975143373];57;3;0.04938290000427514;2.tif;mask.tiff;0.14;left;['left'];0.14953950000926852;1;0.905;2.8991279999609105;51
28;S08;A;pre;1;60.11924049270635;[0.016384099959395826, 0.01615270000183955, 0.01650080003309995, 0.017303299973718822];45;1;0.04995680000865832;7.tif;mask.tiff;0.14;right;['left'];0.24104960000840947;0;2.965;5.041350800020155;23
29;S08;A;pre;1;60.11924049270635;[0.017277900013141334, 0.016619500005617738, 0.01555090001784265, 0.016674399957992136];6;1;0.048844799981452525;8.tif;mask.tiff;-0.14;right;['right'];0.2512374999932945;1;1.109;3.201762399985455;24
30;S08;A;pre;1;60.11924049270635;[0.016596600005868822, 0.01734810002380982, 0.016429200011771172, 0.017300899955444038];29;4;0.05107819999102503;7.tif;mask.tiff;0.14;right;['right'];0.1440242999815382;1;0.844;2.8276889999979176;71
31;S08;A;pre;1;60.11924049270635;[0.016849400009959936, 0.01786369999172166, 0.01602959999581799, 0.016528300009667873];80;1;0.05042159999720752;blank.tiff;mask.tiff;-0.14;a;['left'];0.23714990000007674;0;0.771;2.853569599974435;16
32;S08;A;pre;1;60.11924049270635;[0.016559500014409423, 0.017159299983177334, 0.01656170003116131, 0.017245499999262393];82;2;0.050966500013601035;blank.tiff;mask.tiff;-0.14;a;['right'];0.20045319997007027;0;0.885;2.9344721999950707;32
33;S08;A;pre;1;60.11924049270635;[0.016953599988482893, 0.017292200005613267, 0.016725499997846782, 0.016577400034293532];85;3;0.05059510003775358;blank.tiff;mask.tiff;0.14;a;['right'];0.7797148000099696;0;1.151;3.7628419999964535;49
34;S08;A;pre;1;60.11924049270635;[0.015522700035944581, 0.017606799956411123, 0.016070300014689565, 0.016349799989257008];18;3;0.050026899960357696;3.tif;mask.tiff;-0.14;left;['left'];1.7880719000240788;0;0.973;4.604832000040915;52
35;S08;A;pre;1;60.11924049270635;[0.017778099980205297, 0.015535900020040572, 0.01724870002362877, 0.0159597999881953];15;2;0.04874440003186464;8.tif;mask.tiff;0.14;right;['right'];0.16261279996251687;1;0.677;2.6796222999691963;41
36;S08;A;pre;1;60.11924049270635;[0.015228999953251332, 0.017315800010692328, 0.01653030002489686, 0.016007600002922118];5;1;0.049853700038511306;7.tif;mask.tiff;0.14;right;['right'];0.38181220000842586;0;8.578;10.798849599959794;23
37;S08;A;pre;1;60.11924049270635;[0.0157362999743782, 0.01714650000212714, 0.016402400040533394, 0.017203999974299222];36;5;0.05075290001695976;7.tif;mask.tiff;-0.14;right;['right'];0.3075239000027068;1;9.73;11.873634100018535;86
38;S08;A;pre;1;60.11924049270635;[0.016516199975740165, 0.016994700010400265, 0.016002000018488616, 0.017350199981592596];91;1;0.05034690001048148;blank.tiff;mask.tiff;0.14;a;['right'];0.6451102999853902;0;3.871;6.361498499987647;17
39;S08;A;pre;1;60.11924049270635;[0.01704020000761375, 0.015917899960186332, 0.01634680002462119, 0.0173124999855645];84;3;0.04957719997037202;blank.tiff;mask.tiff;-0.14;a;['left'];0.5251073999679647;0;1.737;4.108308299968485;48
40;S08;A;pre;1;60.11924049270635;[0.014280400006100535, 0.016832799999974668, 0.017495699983555824, 0.015130600018892437];60;3;0.04945910000242293;7.tif;mask.tiff;-0.14;right;['right'];0.1814760999986902;1;0.878;2.897820700018201;54
41;S08;A;pre;1;60.11924049270635;[0.016972500015981495, 0.016284599958453327, 0.017143400036729872, 0.016311599989421666];75;5;0.049739599984604865;3.tif;mask.tiff;0.14;left;['left'];0.23240310000255704;1;1.383;3.465177299978677;85
42;S08;A;pre;1;60.11924049270635;[0.01690789998974651, 0.01604120002593845, 0.021820599969942123, 0.012056900013703853];7;1;0.04991870000958443;8.tif;mask.tiff;0.14;right;['right'];0.27472789998864755;1;0.769;2.874893600004725;25
43;S08;A;pre;1;60.11924049270635;[0.0171818999806419, 0.015499700035434216, 0.01665609999326989, 0.017129999992903322];83;2;0.04928580002160743;blank.tiff;mask.tiff;0.14;a;['left'];0.3863820999977179;0;9.512;11.735587999981362;33
44;S08;A;pre;1;60.11924049270635;[0.016806300031021237, 0.01672299997881055, 0.017219900037162006, 0.0164369999547489];62;3;0.05037989997072145;8.tif;mask.tiff;-0.14;right;['right'];0.21197249996475875;1;0.965;3.012014399981126;56
45;S08;A;pre;1;60.11924049270635;[0.01636889996007085, 0.016966500028502196, 0.016581800009589642, 0.017449699982535094];59;3;0.05099800002062693;3.tif;mask.tiff;0.14;left;['left'];0.185223100008443;1;0.696;2.7181287999846973;53
46;S08;A;pre;1;60.11924049270635;[0.01642780000111088, 0.016628400015179068, 0.01694669999415055, 0.016702900000382215];79;5;0.05027800000971183;8.tif;mask.tiff;0.14;right;['right'];0.18641169997863472;1;1.003;3.0199844000162557;89
47;S08;A;pre;1;60.11924049270635;[0.016893699998036027, 0.016215900017414242, 0.016714699973817915, 0.01682810002239421];54;2;0.04975870001362637;8.tif;mask.tiff;-0.14;right;['right'];0.289930299972184;0;1.024;3.1570636999676935;40
48;S08;A;pre;1;60.11924049270635;[0.016685099981259555, 0.017344599997159094, 0.01629769999999553, 0.01725940004689619];51;2;0.05090170004405081;3.tif;mask.tiff;0.14;left;['right'];0.2018269000109285;1;0.96;3.0018399000400677;37
49;S08;A;pre;1;60.11924049270635;[0.016652500024065375, 0.016768299974501133, 0.017555300029926002, 0.015716399997472763];46;1;0.0500400000018999;8.tif;mask.tiff;-0.14;right;['right'];0.15759919997071847;1;0.715;2.707490000000689;24
50;S08;A;pre;1;60.11924049270635;[0.016581100004259497, 0.016762300045229495, 0.016392799967434257, 0.017327599984128028];86;4;0.05048269999679178;blank.tiff;mask.tiff;-0.14;a;['left'];0.2198608999606222;0;0.869;2.937468499992974;64
51;S08;A;pre;1;60.11924049270635;[0.015824100002646446, 0.017757499997969717, 0.016259500000160187, 0.016369300021324307];97;4;0.05038630001945421;blank.tiff;mask.tiff;0.14;a;['left'];0.2672362999874167;0;1.052;3.149803799984511;65
52;S08;A;pre;1;60.11924049270635;[0.016271399974357337, 0.016439100028946996, 0.017407100007403642, 0.017185299948323518];73;5;0.051031499984674156;2.tif;mask.tiff;0.14;left;['left'];0.1641239000018686;1;0.841;2.8972086000139825;83
53;S08;A;pre;1;60.11924049270635;[0.016458400001283735, 0.017386000021360815, 0.016501399979460984, 0.015803200018126518];93;2;0.04969060001894832;blank.tiff;mask.tiff;0.14;a;['left'];0.22832910000579432;0;0.867;2.9275416000164114;33
54;S08;A;pre;1;60.11924049270635;[0.016302299976814538, 0.017011100018862635, 0.016617299988865852, 0.016766900022048503];95;3;0.05039530002977699;blank.tiff;mask.tiff;0.14;a;['left'];0.28062020003562793;0;1.069;3.1805693000205792;49
55;S08;A;pre;1;60.11924049270635;[0.016996700025629252, 0.016650800011120737, 0.01718929997878149, 0.01622669998323545];50;2;0.05006679997313768;3.tif;mask.tiff;-0.14;left;['right'];0.2212428999482654;0;0.84;2.9039600999676622;36
56;S08;A;pre;1;60.11924049270635;[0.01629200001480058, 0.016605200013145804, 0.01717329997336492, 0.01616890000877902];4;1;0.04994739999528974;7.tif;mask.tiff;-0.14;right;['right'];0.21068250003736466;1;1.038;3.0942933000042103;22
57;S08;A;pre;1;60.11924049270635;[0.01743860001442954, 0.01648429996566847, 0.016498300014063716, 0.016932200000155717];20;3;0.0499147999798879;7.tif;mask.tiff;-0.14;right;['left'];0.3005358999944292;1;3.56;5.7000349999871105;54
58;S08;A;pre;1;60.11924049270635;[0.015736499975901097, 0.016655099985655397, 0.016573700006119907, 0.016788500011898577];35;5;0.05001730000367388;3.tif;mask.tiff;0.14;left;['right'];0.4106329999631271;0;0.954;3.19483210000908;85
59;S08;A;pre;1;60.11924049270635;[0.01597170002060011, 0.01622210000641644, 0.016658500011544675, 0.016936999978497624];68;4;0.04981759999645874;7.tif;mask.tiff;-0.14;right;['right'];0.25493970001116395;1;0.757;2.8546686999616213;70
60;S08;A;pre;1;60.11924049270635;[0.01713749999180436, 0.016350599995348603, 0.017063200008124113, 0.017230400000698864];92;2;0.05064420000417158;blank.tiff;mask.tiff;-0.14;a;['left'];0.2416052999906242;0;0.866;2.9411718999617733;32
61;S08;A;pre;1;60.11924049270635;[0.016812799964100122, 0.016225500032305717, 0.01732300000730902, 0.016125099966302514];53;2;0.04967360000591725;7.tif;mask.tiff;0.14;right;['right'];0.19693580002058297;1;0.663;2.6969616999849677;39
62;S08;A;pre;1;60.11924049270635;[0.01649780001025647, 0.01685749995522201, 0.016668400028720498, 0.01616880000801757];24;4;0.04969469999196008;2.tif;mask.tiff;-0.14;left;['left'];0.224956399993971;1;0.713;2.7751946999924257;66
63;S08;A;pre;1;60.11924049270635;[0.012238399998750538, 0.016206100000999868, 0.016686899994965643, 0.017197699984535575];23;3;0.050090699980501086;8.tif;mask.tiff;0.14;right;['right'];0.15696790005313233;1;1.106;3.1073987999698147;57
64;S08;A;pre;1;60.11924049270635;[0.01641019998351112, 0.01747099997010082, 0.016138800012413412, 0.017174400039948523];25;4;0.050784200022462755;2.tif;mask.tiff;0.14;left;['left'];0.9259279000107199;1;0.843;3.6089265999617055;67
65;S08;A;pre;1;60.11924049270635;[0.016824199992697686, 0.016581800009589642, 0.01710950001142919, 0.016804700018838048];0;1;0.05049600003985688;2.tif;mask.tiff;-0.14;left;['left'];0.173129600007087;1;1.103;3.1233781999908388;18
66;S08;A;pre;1;60.11924049270635;[0.016415800026152283, 0.016259800002444535, 0.016298300004564226, 0.016736499965190887];26;4;0.04929459997219965;3.tif;mask.tiff;-0.14;left;['left'];0.54372830002103;1;1.381;3.759528999973554;68
67;S08;A;pre;1;60.11924049270635;[0.01703110005473718, 0.016779500001575798, 0.01664739998523146, 0.016600999981164932];41;1;0.05002789996797219;2.tif;mask.tiff;0.14;left;['left'];0.20469779998529702;1;0.755;2.8035986000322737;19
68;S08;A;pre;1;60.11924049270635;[0.01670370000647381, 0.016363499977160245, 0.01660760003142059, 0.017547599971294403];67;4;0.05051869997987524;3.tif;mask.tiff;0.14;left;['left'];0.2000957999844104;1;2.687;4.734427300048992;69
69;S08;A;pre;1;60.11924049270635;[0.018498699995689094, 0.015601499995682389, 0.01642060000449419, 0.01750349998474121];44;1;0.04952559998491779;7.tif;mask.tiff;-0.14;right;['right'];0.18366059998515993;1;0.833;2.8670042000012472;22
70;S08;A;pre;1;60.11924049270635;[0.017371400026604533, 0.015711999963968992, 0.017101600009482354, 0.016488099994603544];99;5;0.04930169996805489;blank.tiff;mask.tiff;0.14;a;['right'];1.0202592999557965;0;0.907;3.7701736000017263;81
71;S08;A;pre;1;60.11924049270635;[0.016241900040768087, 0.016950599965639412, 0.01678649999666959, 0.016040500020608306];12;2;0.04977759998291731;7.tif;mask.tiff;-0.14;right;['right'];0.4623707999708131;0;0.967;3.2626071999548003;38
72;S08;A;pre;1;60.11924049270635;[0.017078200005926192, 0.01594050001585856, 0.016920900030527264, 0.01675219996832311];47;1;0.049613600014708936;8.tif;mask.tiff;0.14;right;['right'];0.21806059998925775;1;0.878;2.9354233000194654;25
73;S08;A;pre;1;60.11924049270635;[0.0163450000109151, 0.017714899964630604, 0.016012499982025474, 0.01627820002613589];77;5;0.05000559997279197;7.tif;mask.tiff;0.14;right;['right'];0.19021989998873323;1;0.876;2.9055337000172585;87
74;S08;A;pre;1;60.11924049270635;[0.01692010002443567, 0.016695199999958277, 0.017046199995093048, 0.015514499973505735];76;5;0.04925589996855706;7.tif;mask.tiff;-0.14;right;['right'];1.179632599989418;0;6.474;9.496166500030085;86
75;S08;A;pre;1;60.11924049270635;[0.015997899987269193, 0.01759130001300946, 0.016480899997986853, 0.016683799971360713];55;2;0.050755999982357025;8.tif;mask.tiff;0.14;right;['right'];0.30372490000445396;1;0.76;2.903518199978862;41
76;S08;A;pre;1;60.11924049270635;[0.016907800047192723, 0.016391399956773967, 0.01736749999690801, 0.01675980002619326];27;4;0.05051869997987524;3.tif;mask.tiff;0.14;left;['right'];1.2037735999911092;0;2.629;5.669138900004327;69
77;S08;A;pre;1;60.11924049270635;[0.017645100015215576, 0.016141199972480536, 0.01752019999548793, 0.016053600003942847];14;2;0.04971499997191131;8.tif;mask.tiff;-0.14;right;['right'];0.22435410000616685;1;0.897;2.957437300006859;40
78;S08;A;pre;1;60.11924049270635;[0.016876099980436265, 0.016428800008725375, 0.017086700012441725, 0.01676020002923906];48;2;0.05027570005040616;2.tif;mask.tiff;-0.14;left;['left'];0.3797258000122383;1;0.684;2.896505500015337;34
79;S08;A;pre;1;60.11924049270635;[0.01614189997781068, 0.016927800024859607, 0.017638000019360334, 0.01697609998518601];1;1;0.05154190002940595;2.tif;mask.tiff;0.14;left;['left'];0.21534929994959384;1;0.975;3.0319348000339232;19
80;S08;A;pre;1;60.11924049270635;[0.014523199992254376, 0.01742089999606833, 0.015956200018990785, 0.017201000009663403];71;4;0.05057810002472252;8.tif;mask.tiff;0.14;right;['right'];0.2630656000110321;1;0.795;2.8964611000264995;73
81;S08;A;pre;1;60.11924049270635;[0.01707249996252358, 0.016432900039944798, 0.016917900007683784, 0.016978300001937896];56;3;0.05032910004956648;2.tif;mask.tiff;-0.14;left;['left'];1.6035056000109762;1;0.835;4.2862679999670945;50
82;S08;A;pre;1;60.11924049270635;[0.01627820002613589, 0.017522500013001263, 0.01641779998317361, 0.016067699994891882];37;5;0.050007999991066754;7.tif;mask.tiff;0.14;right;['right'];0.23818149999715388;1;0.753;2.8374568999861367;87
83;S08;A;pre;1;60.11924049270635;[0.017204900039359927, 0.016577299975324422, 0.01677599997492507, 0.016596100002061576];33;5;0.04994939995231107;2.tif;mask.tiff;0.14;left;['left'];5.621609000023454;1;0.974;8.438329599972349;83
84;S08;A;pre;1;60.11924049270635;[0.015094200032763183, 0.016952799982391298, 0.017660300014540553, 0.01638779998756945];10;2;0.0510008999845013;3.tif;mask.tiff;-0.14;left;['left'];1.3559285000083037;0;1.246;4.438998600002378;36
85;S08;A;pre;1;60.11924049270635;[0.02198120002867654, 0.01156839996110648, 0.017319700040388852, 0.014960799948312342];78;5;0.043848899949807674;8.tif;mask.tiff;-0.14;right;['right'];0.31709890003548935;0;1.866;4.016807099978905;88
86;S08;A;pre;1;60.11924049270635;[0.016659800021443516, 0.01633050001692027, 0.017141299962531775, 0.01687099999981001];64;4;0.050342799979262054;2.tif;mask.tiff;-0.14;left;['left'];0.18897299998207018;1;0.87;2.9049135000095703;66
87;S08;A;pre;1;60.11924049270635;[0.017024700006004423, 0.01661310001509264, 0.016532799985725433, 0.01715710002463311];40;1;0.05030300002545118;2.tif;mask.tiff;-0.14;left;['left'];0.19549200002802536;1;0.846;2.879313400015235;18
88;S08;A;pre;1;60.11924049270635;[0.014697000035084784, 0.016882099967915565, 0.016359100001864135, 0.01673470000969246];38;5;0.04997589997947216;8.tif;mask.tiff;-0.14;right;['right'];0.2574585000402294;1;0.849;2.956862499995623;88
89;S08;A;pre;1;60.11924049270635;[0.017779699992388487, 0.015869900002144277, 0.01681760000064969, 0.01652860001195222];13;2;0.04921610001474619;7.tif;mask.tiff;0.14;right;['right'];0.4210692999768071;0;2.085;4.353921900037676;39
90;S08;A;pre;1;60.11924049270635;[0.018125000002328306, 0.014895799977239221, 0.017184399999678135, 0.016018300026189536];63;3;0.04809850000310689;8.tif;mask.tiff;0.14;right;['right'];0.28189070004737005;1;0.86;2.9811345000052825;57
91;S08;A;pre;1;60.11924049270635;[0.01656860002549365, 0.017561899963766336, 0.016316400025971234, 0.01607100002001971];28;4;0.04994930000975728;7.tif;mask.tiff;-0.14;right;['right'];3.1407556000049226;1;1.834;6.825063599972054;70
92;S08;A;pre;1;60.11924049270635;[0.01714509999146685, 0.015740000002551824, 0.017455600027460605, 0.016300000017508864];11;2;0.04949560004752129;3.tif;mask.tiff;0.14;left;['left'];3.2422379999770783;0;8.363;13.440786499995738;37
93;S08;A;pre;1;60.11924049270635;[0.016748499998357147, 0.017680599994491786, 0.015707200043834746, 0.017141499964054674];8;2;0.050529300002381206;2.tif;mask.tiff;-0.14;left;['left'];0.18583249999210238;1;1.215;3.235515900014434;34
94;S08;A;pre;1;60.11924049270635;[0.016850700019858778, 0.016986100003123283, 0.016904500022064894, 0.015765299962367862];9;2;0.04965589998755604;2.tif;mask.tiff;0.14;left;['left'];0.174089299980551;1;0.716;2.7235398999764584;35
95;S08;A;pre;1;60.11924049270635;[0.017094199953135103, 0.016654100036248565, 0.016259900003205985, 0.016827499959617853];42;1;0.0497414999990724;3.tif;mask.tiff;-0.14;left;['left'];0.16221159999258816;1;0.749;2.745448799978476;20
96;S08;A;pre;1;60.11924049270635;[0.016882200026884675, 0.017070100002456456, 0.01605480001308024, 0.016605299955699593];49;2;0.04973019997123629;2.tif;mask.tiff;0.14;left;['left'];0.18528730003163218;1;0.844;2.8693361000041477;35
97;S08;A;pre;1;60.11924049270635;[0.017401900026015937, 0.016108199954032898, 0.017992400040384382, 0.0153641999932006];72;5;0.04946479998761788;2.tif;mask.tiff;-0.14;left;['left'];0.6700913999811746;0;1.918;4.435456000035629;82
98;S08;A;pre;1;60.11924049270635;[0.01649639999959618, 0.017655099974945188, 0.016732399992179126, 0.016492900031153113];66;4;0.050880399998277426;3.tif;mask.tiff;-0.14;left;['left'];0.18560049997176975;1;1.068;3.0852915000286885;68
99;S08;A;pre;1;60.11924049270635;[0.015654199989512563, 0.01626669999677688, 0.017121899989433587, 0.015701500000432134];94;3;0.0490900999866426;blank.tiff;mask.tiff;-0.14;a;['left'];0.7191894000279717;0;0.712;3.268732699973043;48
100;S08;A;pre;2;60.11924049270635;[0.016320399998221546, 0.016552100016269833, 0.017431800020858645, 0.01613879995420575];0;1;0.05012269999133423;2.tif;mask.tiff;-0.14;left;['left'];0.19810679997317493;1;1.535;3.5635899999761023;18
101;S08;A;pre;2;60.11924049270635;[0.01654059998691082, 0.017262800014577806, 0.01641149999340996, 0.016903200012166053];59;3;0.05057750002015382;3.tif;mask.tiff;0.14;left;['left'];0.26317849999759346;1;2.368;4.461804400023539;53
102;S08;A;pre;2;60.11924049270635;[0.017424700025003403, 0.016327999997884035, 0.016514699964318424, 0.015951899986248463];57;3;0.04879459994845092;2.tif;mask.tiff;0.14;left;['left'];0.20788709999760613;1;0.734;2.774665500037372;51
103;S08;A;pre;2;60.11924049270635;[0.016095900034997612, 0.016733600001316518, 0.016686899994965643, 0.01660139998421073];33;5;0.05002189998049289;2.tif;mask.tiff;0.14;left;['left'];0.1915230000158772;1;0.803;2.842369099962525;83
104;S08;A;pre;2;60.11924049270635;[0.013895800046157092, 0.016969799995422363, 0.016090499993879348, 0.017010999959893525];56;3;0.050071299949195236;2.tif;mask.tiff;-0.14;left;['left'];0.18603669997537509;1;0.777;2.8013595000375062;50
105;S08;A;pre;2;60.11924049270635;[0.01695270003983751, 0.016264499980024993, 0.017725099984090775, 0.015593200048897415];65;4;0.049582800013013184;2.tif;mask.tiff;0.14;left;['left'];0.1421896999818273;1;0.947;2.9254778000176884;67
106;S08;A;pre;2;60.11924049270635;[0.016765300009865314, 0.016758900019340217, 0.016599299968220294, 0.016493000031914562];79;5;0.04985120001947507;8.tif;mask.tiff;0.14;right;['right'];0.2375272000208497;1;0.888;2.969464199966751;89
107;S08;A;pre;2;60.11924049270635;[0.015939400007482618, 0.016615700034890324, 0.01645910000661388, 0.016963599948212504];63;3;0.05003839998971671;8.tif;mask.tiff;0.14;right;['right'];0.2887219999684021;1;0.684;2.8218591999611817;57
108;S08;A;pre;2;60.11924049270635;[0.01611280004726723, 0.017067599983420223, 0.016427399998065084, 0.016843599965795875];38;5;0.05033859994728118;8.tif;mask.tiff;-0.14;right;['right'];0.16281700000399724;1;0.916;2.9126234000432305;88
109;S08;A;pre;2;60.11924049270635;[0.012693500029854476, 0.016871600004378706, 0.016343900002539158, 0.01746790000470355];88;5;0.050683400011621416;blank.tiff;mask.tiff;-0.14;a;['right'];1.0286487999837846;0;1.581;4.445185600023251;80
110;S08;A;pre;2;60.11924049270635;[0.015995100024156272, 0.016636500018648803, 0.016257199982646853, 0.0168666000245139];9;2;0.049760300025809556;2.tif;mask.tiff;0.14;left;['left'];0.16592280002078041;1;0.978;2.9828169000102207;35
111;S08;A;pre;2;60.11924049270635;[0.016364100039936602, 0.01678779994836077, 0.016978400002699345, 0.016809299995657057];40;1;0.05057549994671717;2.tif;mask.tiff;-0.14;left;['right'];0.22040440002456307;0;1.268;3.320207799959462;18
112;S08;A;pre;2;60.11924049270635;[0.016934500017669052, 0.016677199979312718, 0.017295100027695298, 0.017293399956543];82;2;0.051265699963551015;blank.tiff;mask.tiff;-0.14;a;['left'];0.3262299000052735;0;0.745;2.909914000018034;32
113;S08;A;pre;2;60.11924049270635;[0.016437300015240908, 0.017492799961473793, 0.015677800052799284, 0.016971999953966588];26;4;0.050142599968239665;3.tif;mask.tiff;-0.14;left;['left'];0.15652620000764728;1;1.016;3.0052296000067145;68
114;S08;A;pre;2;60.11924049270635;[0.01731560000916943, 0.01593329996103421, 0.017566800001077354, 0.01574080000864342];54;2;0.04924089997075498;8.tif;mask.tiff;-0.14;right;['left'];1.989379100035876;1;1.233;5.055999499978498;40
115;S08;A;pre;2;60.11924049270635;[0.014147800044156611, 0.016045199998188764, 0.017104699974879622, 0.016268300008960068];41;1;0.049418199982028455;2.tif;mask.tiff;0.14;left;['left'];0.3357933000079356;1;4.334;6.501927199948113;19
116;S08;A;pre;2;60.11924049270635;[0.016809799999464303, 0.016419699997641146, 0.016560500022023916, 0.017329099995549768];50;2;0.05030930001521483;3.tif;mask.tiff;-0.14;left;['left'];0.1701747999759391;1;1.048;3.053322899970226;36
117;S08;A;pre;2;60.11924049270635;[0.016929699981119484, 0.016603800002485514, 0.016940000001341105, 0.01602509996155277];35;5;0.04956889996537939;3.tif;mask.tiff;0.14;left;['left'];0.28095859999302775;0;0.682;2.813720000034664;85
118;S08;A;pre;2;60.11924049270635;[0.01717889995779842, 0.016530000022612512, 0.016907199984416366, 0.016276600013952702];80;1;0.04971380002098158;blank.tiff;mask.tiff;-0.14;a;['left'];0.2354413999710232;0;0.822;2.9024406000389718;16
119;S08;A;pre;2;60.11924049270635;[0.016684799978975207, 0.01759130001300946, 0.015236500010360032, 0.01720020000357181];52;2;0.0500280000269413;7.tif;mask.tiff;-0.14;right;['right'];0.17398890003096312;1;0.906;2.923666799964849;38
120;S08;A;pre;2;60.11924049270635;[0.014469499990809709, 0.01724160002777353, 0.016305900004226714, 0.015929899993352592];76;5;0.049477400025352836;7.tif;mask.tiff;-0.14;right;['right'];0.2166723000118509;0;0.803;2.866278900008183;86
121;S08;A;pre;2;60.11924049270635;[0.01612419995944947, 0.016693000041414052, 0.01712409994797781, 0.01652440003817901];30;4;0.050341500027570873;8.tif;mask.tiff;-0.14;right;['right'];0.172744799987413;1;0.903;2.92312980000861;72
122;S08;A;pre;2;60.11924049270635;[0.015908799949102104, 0.01744460000190884, 0.016701400047168136, 0.016400399967096746];99;5;0.05054640001617372;blank.tiff;mask.tiff;0.14;a;['left'];0.1709069999633357;0;1.091;3.103680500003975;81
123;S08;A;pre;2;60.11924049270635;[0.016047700017224997, 0.016980400017928332, 0.015278699982445687, 0.016857400012668222];78;5;0.04911650001304224;8.tif;mask.tiff;-0.14;right;['right'];0.2046826000441797;1;0.742;2.788394299976062;88
124;S08;A;pre;2;60.11924049270635;[0.017042199964635074, 0.01645920000737533, 0.016491400019731373, 0.01699859998188913];81;1;0.04994920000899583;blank.tiff;mask.tiff;0.14;a;['left'];0.18498070002533495;0;1.295;3.318972999986727;17
125;S08;A;pre;2;60.11924049270635;[0.017246200004592538, 0.01614929997595027, 0.016192100010812283, 0.017594299977645278];74;5;0.04993569996440783;3.tif;mask.tiff;-0.14;left;['left'];0.29783479997422546;1;1.643;3.780709000013303;84
126;S08;A;pre;2;60.11924049270635;[0.017664799990598112, 0.015696699963882565, 0.016532600042410195, 0.016679499996826053];12;2;0.04890880000311881;7.tif;mask.tiff;-0.14;right;['left'];5.144114200025797;0;3.326;10.311750399996527;38
127;S08;A;pre;2;60.11924049270635;[0.017009400005917996, 0.016504800005350262, 0.0167420000070706, 0.016313300002366304];94;3;0.04956010001478717;blank.tiff;mask.tiff;-0.14;a;['left'];1.0218396999989636;0;1.179;4.0377471999963745;48
128;S08;A;pre;2;60.11924049270635;[0.01708900002995506, 0.01655240001855418, 0.016783899976871908, 0.0164873999892734];44;1;0.04982369998469949;7.tif;mask.tiff;-0.14;right;['right'];0.17945070000132546;1;0.818;2.845712900045328;22
129;S08;A;pre;2;60.11924049270635;[0.016007900005206466, 0.016815399983897805, 0.017314700002316386, 0.015966099977958947];85;3;0.05009619996417314;blank.tiff;mask.tiff;0.14;a;['right'];0.21974189998582006;0;0.824;2.8864112999872304;49
130;S08;A;pre;2;60.11924049270635;[0.017500400019343942, 0.01519830001052469, 0.017895400000270456, 0.016274299996439368];4;1;0.049368000007234514;7.tif;mask.tiff;-0.14;right;['right'];0.7635175999603234;1;0.823;3.4306357000023127;22
131;S08;A;pre;2;60.11924049270635;[0.013725200027693063, 0.01650949998293072, 0.016350699996110052, 0.017608000023756176];95;3;0.05046820000279695;blank.tiff;mask.tiff;0.14;a;['left'];0.22836259996984154;0;0.801;2.861626499972772;49
132;S08;A;pre;2;60.11924049270635;[0.01659090002067387, 0.01522629999089986, 0.01787849998800084, 0.01547250000294298];19;3;0.04857729998184368;3.tif;mask.tiff;0.14;left;['left'];0.15857999998843297;1;0.921;2.9241007000091486;53
133;S08;A;pre;2;60.11924049270635;[0.016590000013820827, 0.017606599954888225, 0.015556500002276152, 0.016332200029864907];60;3;0.049495299987029284;7.tif;mask.tiff;-0.14;right;['left'];0.15487640001811087;1;0.944;2.939028299995698;54
134;S08;A;pre;2;60.11924049270635;[0.017476600012741983, 0.01648859999841079, 0.016374099999666214, 0.017569300020113587];8;2;0.05043200001819059;2.tif;mask.tiff;-0.14;left;['right'];0.6002459999872372;0;0.772;3.216886800015345;34
135;S08;A;pre;2;60.11924049270635;[0.016221099998801947, 0.01702479994855821, 0.01581320003606379, 0.017071900016162544];17;3;0.049909900000784546;2.tif;mask.tiff;0.14;left;['left'];0.6042750999913551;1;1.067;3.5209765000035986;51
136;S08;A;pre;2;60.11924049270635;[0.016418799990788102, 0.016824199992697686, 0.017721900017932057, 0.015794700011610985];37;5;0.05034080002224073;7.tif;mask.tiff;0.14;right;['right'];0.19089830003213137;1;0.752;2.7920445000054315;87
137;S08;A;pre;2;60.11924049270635;[0.015911799971945584, 0.018124900001566857, 0.015536500024609268, 0.01658359996508807];31;4;0.050244999991264194;8.tif;mask.tiff;0.14;right;['right'];0.17180309997638687;1;0.9;2.9038443999597803;73
138;S08;A;pre;2;60.11924049270635;[0.016930599987972528, 0.016520500008482486, 0.016361900023184717, 0.01693629997316748];98;5;0.04981870000483468;blank.tiff;mask.tiff;-0.14;a;['left'];0.21039289998589084;0;0.881;2.9251844999962486;80
139;S08;A;pre;2;60.11924049270635;[0.01861510000890121, 0.01566659996751696, 0.01621179998619482, 0.01785330002894625];84;3;0.04973169998265803;blank.tiff;mask.tiff;-0.14;a;['left'];0.1848815999692306;0;0.827;2.8673417999525554;48
140;S08;A;pre;2;60.11924049270635;[0.016320799943059683, 0.016472300048917532, 0.017130699998233467, 0.016734899953007698];62;3;0.0503379000001587;8.tif;mask.tiff;-0.14;right;['right'];0.1624980999622494;1;0.802;2.812234200013336;56
141;S08;A;pre;2;60.11924049270635;[0.01686209999024868, 0.01802519999910146, 0.01584000000730157, 0.01603840000461787];14;2;0.0499036000110209;8.tif;mask.tiff;-0.14;right;['right'];0.1726504000253044;1;0.987;3.0051692000124604;40
142;S08;A;pre;2;60.11924049270635;[0.016120900050736964, 0.016995899961329997, 0.017123300000093877, 0.016254400019533932];77;5;0.050373599980957806;7.tif;mask.tiff;0.14;right;['right'];0.17169950000243261;1;0.678;2.6872627999982797;87
143;S08;A;pre;2;60.11924049270635;[0.01657020003767684, 0.01651119999587536, 0.016668599972035736, 0.01661589997820556];34;5;0.049795699946116656;3.tif;mask.tiff;-0.14;left;['left'];0.18783700000494719;1;1.027;3.054270100023132;84
144;S08;A;pre;2;60.11924049270635;[0.015806899988092482, 0.018113600031938404, 0.015862799948081374, 0.01662540005054325];29;4;0.05060180003056303;7.tif;mask.tiff;0.14;right;['right'];0.37902540003415197;1;1.228;3.444387099996675;71
145;S08;A;pre;2;60.11924049270635;[0.018273299967404455, 0.01563829998485744, 0.01711529999738559, 0.016134300036355853];42;1;0.048887900018598884;3.tif;mask.tiff;-0.14;left;['left'];0.2153476999956183;0;0.946;2.9985299999825656;20
146;S08;A;pre;2;60.11924049270635;[0.017100400000344962, 0.016173499985598028, 0.016627300006803125, 0.01727259997278452];72;5;0.05007339996518567;2.tif;mask.tiff;-0.14;left;['left'];0.16604179999558255;1;0.818;2.8156177999917418;82
147;S08;A;pre;2;60.11924049270635;[0.016798999975435436, 0.01760740001918748, 0.016369400022085756, 0.016145699948538095];11;2;0.05012249998981133;3.tif;mask.tiff;0.14;left;['right'];0.5261034999857657;0;0.863;3.2258184000384063;37
148;S08;A;pre;2;60.11924049270635;[0.016676599974744022, 0.016335499996785074, 0.017042300023604184, 0.016603399999439716];20;3;0.049981200019828975;7.tif;mask.tiff;-0.14;right;['right'];0.16671179997501895;1;0.873;2.8830075000296347;54
149;S08;A;pre;2;60.11924049270635;[0.015769599995110184, 0.017224500013981014, 0.015833399957045913, 0.01767870003823191];45;1;0.050736600009258837;7.tif;mask.tiff;0.14;right;['right'];2.346163200039882;0;1.151;5.32911500002956;23
150;S08;A;pre;2;60.11924049270635;[0.01637169998139143, 0.01698509999550879, 0.01669469999615103, 0.016363900038413703];28;4;0.050043700030073524;7.tif;mask.tiff;-0.14;right;['right'];0.2025409999769181;1;0.887;2.9360378999845125;70
151;S08;A;pre;2;60.11924049270635;[0.016655099985655397, 0.01588269998319447, 0.0173126999870874, 0.01682499999878928];25;4;0.05002039996907115;2.tif;mask.tiff;0.14;left;['right'];1.4397264000144787;0;3.679;6.955976700002793;67
152;S08;A;pre;2;60.11924049270635;[0.01540740003110841, 0.01616589998593554, 0.018186300003435463, 0.014985200017690659];32;5;0.04933740000706166;2.tif;mask.tiff;-0.14;left;['left'];0.16581129998667166;1;1.428;3.4318044999963604;82
153;S08;A;pre;2;60.11924049270635;[0.016688100004103035, 0.017344799998681992, 0.015653699985705316, 0.017203399969730526];43;1;0.050201899954117835;3.tif;mask.tiff;0.14;left;['left'];0.2006851999904029;1;1.155;3.2008182000136003;21
154;S08;A;pre;2;60.11924049270635;[0.017547199968248606, 0.01639390003401786, 0.016847699997015297, 0.016363299975637347];7;1;0.049604900006670505;8.tif;mask.tiff;0.14;right;['right'];0.22231929999543354;1;0.664;2.722156999981962;25
155;S08;A;pre;2;60.11924049270635;[0.01650680002057925, 0.016674700018484145, 0.017308899958152324, 0.016015700006391853];66;4;0.04999929998302832;3.tif;mask.tiff;-0.14;left;['left'];0.35121689998777583;1;1.409;3.6006962000392377;68
156;S08;A;pre;2;60.11924049270635;[0.01628560002427548, 0.01643130002776161, 0.01682969997636974, 0.01678820000961423];73;5;0.050049200013745576;2.tif;mask.tiff;0.14;left;['left'];0.1948798000230454;1;0.72;2.7617730000056326;83
157;S08;A;pre;2;60.11924049270635;[0.016206100000999868, 0.017205199983436614, 0.016276200010906905, 0.01657010003691539];1;1;0.05005150003125891;2.tif;mask.tiff;0.14;left;['left'];0.15619009995134547;1;0.798;2.7889591000275686;19
158;S08;A;pre;2;60.11924049270635;[0.016375100007280707, 0.016524899983778596, 0.016538500029128045, 0.01772459998028353];24;4;0.05078799999319017;2.tif;mask.tiff;-0.14;left;['left'];0.21966369997244328;0;0.897;2.953021000023;66
159;S08;A;pre;2;60.11924049270635;[0.01667099999031052, 0.01708269998198375, 0.016037199995480478, 0.01708130002953112];91;1;0.05020120000699535;blank.tiff;mask.tiff;0.14;a;['right'];0.17501339997397736;1;0.914;2.924723400035873;17
160;S08;A;pre;2;60.11924049270635;[0.017137400049250573, 0.017131999949924648, 0.015667000028770417, 0.01724580000154674];21;3;0.050044799980241805;7.tif;mask.tiff;0.14;right;['right'];0.1482386999996379;1;0.692;2.6816812000470236;55
161;S08;A;pre;2;60.11924049270635;[0.016830299980938435, 0.01627820002613589, 0.016006099991500378, 0.01740899996366352];5;1;0.04969329998129979;7.tif;mask.tiff;0.14;right;['left'];0.17209300003014505;0;5.896;7.905561499996111;23
162;S08;A;pre;2;60.11924049270635;[0.01730499998666346, 0.016833000001497567, 0.01606930000707507, 0.01665900001535192];18;3;0.04956130002392456;3.tif;mask.tiff;-0.14;left;['left'];0.3559027999872342;0;1.032;3.223535900004208;52
163;S08;A;pre;2;60.11924049270635;[0.016104099981021136, 0.017004699970129877, 0.016696800012141466, 0.016267300001345575];47;1;0.04996879998361692;8.tif;mask.tiff;0.14;right;['right'];0.14074409997556359;1;0.865;2.8410590999992564;25
164;S08;A;pre;2;60.11924049270635;[0.016667700023390353, 0.01658240001415834, 0.016958899970632046, 0.016717999998945743];68;4;0.05025929998373613;7.tif;mask.tiff;-0.14;right;['left'];0.2622933999518864;0;0.845;2.945941200014204;70
165;S08;A;pre;2;60.11924049270635;[0.016441599989775568, 0.01706779998494312, 0.016477400029543787, 0.016938299988396466];71;4;0.050483500002883375;8.tif;mask.tiff;0.14;right;['right'];0.13876760000130162;1;0.654;2.6386879000347108;73
166;S08;A;pre;2;60.11924049270635;[0.016935700026806444, 0.016181599989067763, 0.016866400022991, 0.01677589997416362];87;4;0.049823899986222386;blank.tiff;mask.tiff;0.14;a;['right'];0.21571550000226125;1;5.314;7.3665168000152335;65
167;S08;A;pre;2;60.11924049270635;[0.01694519998272881, 0.016447599977254868, 0.016842600016389042, 0.016629300022032112];83;2;0.04991950001567602;blank.tiff;mask.tiff;0.14;a;['left'];0.14316130004590377;0;0.84;2.8260767000028864;33
168;S08;A;pre;2;60.11924049270635;[0.01613469998119399, 0.017154800007119775, 0.017221499991137534, 0.01661599997896701];39;5;0.05099229997722432;8.tif;mask.tiff;0.14;right;['right'];0.1719573000445962;1;0.715;2.73949150001863;89
169;S08;A;pre;2;60.11924049270635;[0.01649780001025647, 0.016174399992451072, 0.016796400013845414, 0.01606360002188012];49;2;0.049034400028176606;2.tif;mask.tiff;0.14;left;['right'];0.16164359997492284;1;1.147;3.144750000035856;35
170;S08;A;pre;2;60.11924049270635;[0.017269100004341453, 0.017338200006633997, 0.01689640001859516, 0.015744499978609383];13;2;0.04997910000383854;7.tif;mask.tiff;0.14;right;['right'];0.1602564999484457;1;2.281;4.276903600024525;39
171;S08;A;pre;2;60.11924049270635;[0.01769180002156645, 0.015523799986112863, 0.016572299995459616, 0.01655080000637099];3;1;0.04864689998794347;3.tif;mask.tiff;0.14;left;['left'];0.17447399999946356;1;0.888;2.9066898999735713;21
172;S08;A;pre;2;60.11924049270635;[0.015803699963726103, 0.016696500009857118, 0.01634959998773411, 0.017412299988791347];92;2;0.050458399986382574;blank.tiff;mask.tiff;-0.14;a;['left'];0.2088332999846898;0;0.794;2.8418165000039153;32
173;S08;A;pre;2;60.11924049270635;[0.014048100041691214, 0.01723109994782135, 0.016414000012446195, 0.01669020002009347];53;2;0.050335299980361015;7.tif;mask.tiff;0.14;right;['right'];0.18599740002537146;1;2.182;4.202934100001585;39
174;S08;A;pre;2;60.11924049270635;[0.01596889999927953, 0.016313400003127754, 0.01686980004888028, 0.016347699973266572];48;2;0.049530900025274605;2.tif;mask.tiff;-0.14;left;['left'];0.16867460001958534;1;0.68;2.6843432000023313;34
175;S08;A;pre;2;60.11924049270635;[0.016207000007852912, 0.01780579995829612, 0.01610810001147911, 0.016062600014265627];64;4;0.049976499984040856;2.tif;mask.tiff;-0.14;left;['left'];0.19365659996401519;0;1.633;3.6595810999860987;66
176;S08;A;pre;2;60.11924049270635;[0.016825900005642325, 0.016781100013758987, 0.01654499996220693, 0.015947300009429455];23;3;0.04927339998539537;8.tif;mask.tiff;0.14;right;['right'];0.12499290000414476;1;0.914;2.8747141999774612;57
177;S08;A;pre;2;60.11924049270635;[0.017292500007897615, 0.016040700022131205, 0.01683269999921322, 0.01617729995632544];96;4;0.049050699977669865;blank.tiff;mask.tiff;-0.14;a;['right'];0.1890453000087291;0;0.694;2.7218218999914825;64
178;S08;A;pre;2;60.11924049270635;[0.01588409999385476, 0.01688449998619035, 0.0163507999968715, 0.017772599996533245];55;2;0.051007899979595095;8.tif;mask.tiff;0.14;right;['right'];0.14713080000365153;1;0.88;2.8641304000047967;41
179;S08;A;pre;2;60.11924049270635;[0.01604449999285862, 0.01706069998908788, 0.016241100034676492, 0.016454999975394458];75;5;0.04975679999915883;3.tif;mask.tiff;0.14;left;['left'];0.18687759997555986;1;0.897;2.9191537000006065;85
180;S08;A;pre;2;60.11924049270635;[0.016037900000810623, 0.016658500011544675, 0.016572199994698167, 0.016300100018270314];61;3;0.049530800024513155;7.tif;mask.tiff;0.14;right;['right'];0.1885745999752544;1;1.776;3.805539100023452;55
181;S08;A;pre;2;60.11924049270635;[0.01669459999538958, 0.017758200003299862, 0.015850600029807538, 0.016529299959074706];51;2;0.050138099992182106;3.tif;mask.tiff;0.14;left;['left'];0.14661570003954694;1;0.896;2.879792899999302;37
182;S08;A;pre;2;60.11924049270635;[0.013600700011011213, 0.016491300018969923, 0.016594199987594038, 0.017476200009696186];89;5;0.05056170001626015;blank.tiff;mask.tiff;0.14;a;['left'];0.16193780000321567;0;1.259;3.2621534999925643;81
183;S08;A;pre;2;60.11924049270635;[0.014387100003659725, 0.016049500030931085, 0.017335699987597764, 0.016594899992924184];27;4;0.04998010001145303;3.tif;mask.tiff;0.14;left;['left'];0.1844151000259444;0;0.886;2.917464400001336;69
184;S08;A;pre;2;60.11924049270635;[0.016722299973480403, 0.01628600002732128, 0.016799099976196885, 0.016480299993418157];10;2;0.04956539999693632;3.tif;mask.tiff;-0.14;left;['left'];0.19794669997645542;0;1.114;3.1483604999957606;36
185;S08;A;pre;2;60.11924049270635;[0.016382500005420297, 0.01651549997041002, 0.016878099995665252, 0.016970700002275407];15;2;0.05036429996835068;8.tif;mask.tiff;0.14;right;['right'];0.15977580001344904;1;0.926;2.9271087999804877;41
186;S08;A;pre;2;60.11924049270635;[0.01571680000051856, 0.016511800000444055, 0.017068999994080514, 0.016135299985762686];16;3;0.049716099980287254;2.tif;mask.tiff;-0.14;left;['right'];0.2674828000017442;1;7.201;9.300746299966704;50
187;S08;A;pre;2;60.11924049270635;[0.01673029997618869, 0.016353100014384836, 0.016687600000295788, 0.01707110001007095];46;1;0.050111800024751574;8.tif;mask.tiff;-0.14;right;['right'];0.13607889995910227;1;0.858;2.8357898999820463;24
188;S08;A;pre;2;60.11924049270635;[0.016373899998143315, 0.017059799982234836, 0.016197399992961437, 0.016303100041113794];69;4;0.049560300016310066;7.tif;mask.tiff;0.14;right;['right'];0.23677029996179044;1;1.134;3.2037623999640346;71
189;S08;A;pre;2;60.11924049270635;[0.016995999962091446, 0.01645500003360212, 0.016500099969562143, 0.017109100008383393];6;1;0.050064200011547655;8.tif;mask.tiff;-0.14;right;['right'];0.1534218000015244;1;0.858;2.8535222000209615;24
190;S08;A;pre;2;60.11924049270635;[0.015618000004906207, 0.014716099947690964, 0.017123600002378225, 0.016834400012157857];36;5;0.048674099962227046;7.tif;mask.tiff;-0.14;right;['right'];0.14188949996605515;1;0.767;2.7418043999932706;86
191;S08;A;pre;2;60.11924049270635;[0.01558499998645857, 0.017412399989552796, 0.0169657000224106, 0.016120299987960607];90;1;0.050498399999924004;blank.tiff;mask.tiff;-0.14;a;['left'];1.1262144999927841;0;1.68;4.642868199967779;16
192;S08;A;pre;2;60.11924049270635;[0.01762679999228567, 0.015787100011948496, 0.016292400017846376, 0.017325200024060905];93;2;0.04940470005385578;blank.tiff;mask.tiff;0.14;a;['left'];0.23217120004119352;0;1.018;3.0991454999893904;33
193;S08;A;pre;2;60.11924049270635;[0.015267999959178269, 0.01644259999739006, 0.01651380001567304, 0.01689040003111586];86;4;0.04984680004417896;blank.tiff;mask.tiff;-0.14;a;['left'];0.24710809998214245;0;0.792;2.8799051999812946;64
194;S08;A;pre;2;60.11924049270635;[0.016929600038565695, 0.01754669996444136, 0.01605460001155734, 0.017243199981749058];22;3;0.05084449995774776;8.tif;mask.tiff;-0.14;right;['right'];0.16648559999885038;1;0.833;2.8313500999938697;56
195;S08;A;pre;2;60.11924049270635;[0.016640699992422014, 0.01706690003629774, 0.01580699998885393, 0.016953599988482893];58;3;0.04982750001363456;3.tif;mask.tiff;-0.14;left;['left'];0.22483140003168955;1;0.723;2.791542900027707;52
196;S08;A;pre;2;60.11924049270635;[0.015972600027453154, 0.017321099992841482, 0.01598069997271523, 0.017576800019014627];67;4;0.05087859998457134;3.tif;mask.tiff;0.14;left;['left'];0.22364440001547337;0;0.882;2.940136600052938;69
197;S08;A;pre;2;60.11924049270635;[0.01645470003131777, 0.017082199978176504, 0.016822999983560294, 0.01606190000893548];97;4;0.04996709997067228;blank.tiff;mask.tiff;0.14;a;['left'];2.303622199979145;0;0.946;5.087047600012738;65
198;S08;A;pre;2;60.11924049270635;[0.016659999964758754, 0.016560200019739568, 0.01675569999497384, 0.016922299982979894];2;1;0.0502381999976933;3.tif;mask.tiff;-0.14;left;['left'];0.18364229996223003;1;0.747;2.7671709999558516;20
199;S08;A;pre;2;60.11924049270635;[0.016357400047127157, 0.016388899995945394, 0.017101599951274693, 0.016564800054766238];70;4;0.050055300001986325;8.tif;mask.tiff;-0.14;right;['right'];0.20374740002444014;1;0.714;2.753221500024665;72
200;S08;A;pre;3;60.11924049270635;[0.01670799998100847, 0.01680719997966662, 0.01633750001201406, 0.01767690002452582];14;2;0.0508216000162065;8.tif;mask.tiff;-0.14;right;['right'];0.6389834999572486;1;1.651;4.138967200007755;40
201;S08;A;pre;3;60.11924049270635;[0.0169228000449948, 0.01614329998847097, 0.016929799981880933, 0.017053699993994087];73;5;0.05012679996434599;2.tif;mask.tiff;0.14;left;['left'];0.7428126999875531;1;1.575;4.159538800013252;83
202;S08;A;pre;3;60.11924049270635;[0.016644700022879988, 0.018004000012297183, 0.01580999995348975, 0.016902800009120256];32;5;0.05071679997490719;2.tif;mask.tiff;-0.14;left;['left'];0.48189019999699667;1;1.193;3.515328600013163;82
203;S08;A;pre;3;60.11924049270635;[0.01665050000883639, 0.016764900006819516, 0.017121899989433587, 0.01615370000945404];86;4;0.050040500005707145;blank.tiff;mask.tiff;-0.14;a;['right'];0.6499516000039876;0;0.925;3.4170107000391;64
204;S08;A;pre;3;60.11924049270635;[0.01646349998190999, 0.015272499993443489, 0.017144200042821467, 0.01604879996739328];25;4;0.048465500003658235;2.tif;mask.tiff;0.14;left;['left'];0.4219904000055976;1;1.096;3.355202900012955;67
205;S08;A;pre;3;60.11924049270635;[0.01709350000601262, 0.016175700002349913, 0.019012300006579608, 0.015411999949719757];85;3;0.05059999995864928;blank.tiff;mask.tiff;0.14;a;['left'];0.6628333000116982;0;1.16;3.662965699972119;49
206;S08;A;pre;3;60.11924049270635;[0.01716160000069067, 0.016155900026205927, 0.016800399986095726, 0.016397900006268173];91;1;0.04935420001856983;blank.tiff;mask.tiff;0.14;a;['left'];0.2953043999732472;0;0.725;2.8614311999990605;17
207;S08;A;pre;3;60.11924049270635;[0.01647229999070987, 0.016310199978761375, 0.01631239999551326, 0.016986300004646182];7;1;0.04960889997892082;8.tif;mask.tiff;0.14;right;['right'];0.17243699997197837;1;0.843;2.8555838000029325;25
208;S08;A;pre;3;60.11924049270635;[0.01749800000106916, 0.016899900045245886, 0.016016999958083034, 0.01830820000031963];36;5;0.05122510000364855;7.tif;mask.tiff;-0.14;right;['right'];0.19980890001170337;1;0.881;2.9178386999992654;86
209;S08;A;pre;3;60.11924049270635;[0.016969899996183813, 0.015833100012969226, 0.017724999983329326, 0.01685600000200793];68;4;0.05041409999830648;7.tif;mask.tiff;-0.14;right;['right'];1.1953174999798648;0;1.182;4.211769899993669;70
210;S08;A;pre;3;60.11924049270635;[0.016987600014545023, 0.017286800022702664, 0.016598799964413047, 0.015988400031346828];99;5;0.04987400001846254;blank.tiff;mask.tiff;0.14;a;['left'];0.6548017000313848;0;0.914;3.404067200026475;81
211;S08;A;pre;3;60.11924049270635;[0.017155800014734268, 0.015650399960577488, 0.016633199993520975, 0.017555200029164553];95;3;0.049838799983263016;blank.tiff;mask.tiff;0.14;a;['right'];0.2109851999557577;0;1.072;3.127840799978003;49
212;S08;A;pre;3;60.11924049270635;[0.016103199974168092, 0.01673339999979362, 0.01730529998894781, 0.015928199980407953];98;5;0.04996689996914938;blank.tiff;mask.tiff;-0.14;a;['left'];2.0626908999984153;0;11.689;15.596329800027888;80
213;S08;A;pre;3;60.11924049270635;[0.0164383000228554, 0.017080699966754764, 0.016375700011849403, 0.016980300017166883];11;2;0.05043669999577105;3.tif;mask.tiff;0.14;left;['right'];0.8370336000225507;0;1.983;4.670103999960702;37
214;S08;A;pre;3;60.11924049270635;[0.013795500039122999, 0.01726489997236058, 0.016504700004588813, 0.01654490001965314];41;1;0.050314499996602535;2.tif;mask.tiff;0.14;left;['left'];0.26263399998424575;1;0.957;3.061974900017958;19
215;S08;A;pre;3;60.11924049270635;[0.016695400001481175, 0.017492899962235242, 0.016715900041162968, 0.01593629998387769];35;5;0.0501450999872759;3.tif;mask.tiff;0.14;left;['left'];0.40410850004991516;1;2.597;4.837973300018348;85
216;S08;A;pre;3;60.11924049270635;[0.015013600001111627, 0.016551300010178238, 0.016396399994846433, 0.01705919997766614];2;1;0.05000689998269081;3.tif;mask.tiff;-0.14;left;['left'];0.2450428000302054;1;4.421;6.511106399993878;20
217;S08;A;pre;3;60.11924049270635;[0.017101700010243803, 0.015708999999333173, 0.01830539997899905, 0.015446399978827685];55;2;0.04946079995715991;8.tif;mask.tiff;0.14;right;['right'];0.18992990005062893;1;0.95;2.9902466000057757;41
218;S08;A;pre;3;60.11924049270635;[0.016797999967820942, 0.016047800017986447, 0.01719119999324903, 0.016111399978399277];26;4;0.04935039998963475;3.tif;mask.tiff;-0.14;left;['left'];0.39511370001127943;1;1.696;3.928659700031858;68
219;S08;A;pre;3;60.11924049270635;[0.014890400052536279, 0.01584399997955188, 0.01713160000508651, 0.017180199967697263];29;4;0.050155799952335656;7.tif;mask.tiff;0.14;right;['right'];0.22468370001297444;1;0.912;2.9742240000050515;71
220;S08;A;pre;3;60.11924049270635;[0.017492900020442903, 0.015465500007849187, 0.016763499996159226, 0.017108900006860495];76;5;0.04933790001086891;7.tif;mask.tiff;-0.14;right;['right'];0.2844479000195861;1;0.823;2.9513086000224575;86
221;S08;A;pre;3;60.11924049270635;[0.01751999999396503, 0.017140300013124943, 0.016255199967417866, 0.01609300001291558];93;2;0.04948849999345839;blank.tiff;mask.tiff;0.14;a;['right'];0.20239470002707094;1;0.822;2.868640400003642;33
222;S08;A;pre;3;60.11924049270635;[0.017052699986379594, 0.017076500051189214, 0.015963399957399815, 0.016867400030605495];90;1;0.049907300039194524;blank.tiff;mask.tiff;-0.14;a;['left'];0.2544177999952808;0;0.67;2.770863500016276;16
223;S08;A;pre;3;60.11924049270635;[0.0151909000123851, 0.01633899996522814, 0.017707400023937225, 0.015971400018315762];96;4;0.05001780000748113;blank.tiff;mask.tiff;-0.14;a;['right'];0.6026942000025883;0;1.451;3.9019412999623455;64
224;S08;A;pre;3;60.11924049270635;[0.017019800026901066, 0.016665700008161366, 0.016840199998114258, 0.016189199988730252];20;3;0.049695099995005876;7.tif;mask.tiff;-0.14;right;['left'];0.6684832000173628;0;1.171;3.684640899999067;54
225;S08;A;pre;3;60.11924049270635;[0.016824699996504933, 0.017018700018525124, 0.016774500021710992, 0.016686799994204193];37;5;0.05048000003444031;7.tif;mask.tiff;0.14;right;['right'];0.293522700027097;1;3.688;5.8274700999609195;87
226;S08;A;pre;3;60.11924049270635;[0.01656259997980669, 0.016636600019410253, 0.01707390003139153, 0.01652259996626526];67;4;0.050233100017067045;3.tif;mask.tiff;0.14;left;['left'];0.26207569998223335;1;2.339;4.445240200031549;69
227;S08;A;pre;3;60.11924049270635;[0.01592139998683706, 0.016261100012343377, 0.016133499972056597, 0.01716129999840632];13;2;0.049555899982806295;7.tif;mask.tiff;0.14;right;['right'];0.2132106000208296;1;0.808;2.8580247999634594;39
228;S08;A;pre;3;60.11924049270635;[0.01821309997467324, 0.015417899994645268, 0.0176352999988012, 0.015484699979424477];79;5;0.048537899972870946;8.tif;mask.tiff;0.14;right;['right'];0.2679509000154212;1;1.208;3.317208099993877;89
229;S08;A;pre;3;60.11924049270635;[0.01609320001443848, 0.017437600006815046, 0.015926799969747663, 0.01671980001265183];47;1;0.05008419998921454;8.tif;mask.tiff;0.14;right;['right'];0.6266401999746449;1;1.811;4.276987899967935;25
230;S08;A;pre;3;60.11924049270635;[0.016888500016648322, 0.01759989996207878, 0.01617780001834035, 0.0159791000187397];50;2;0.04975679999915883;3.tif;mask.tiff;-0.14;left;['left'];0.29358480003429577;1;2.478;4.610407600004692;36
231;S08;A;pre;3;60.11924049270635;[0.016622700029984117, 0.018460499995853752, 0.0157922999933362, 0.015938500000629574];87;4;0.05019129998981953;blank.tiff;mask.tiff;0.14;a;['right'];0.2098964000470005;1;1.036;3.076392900024075;65
232;S08;A;pre;3;60.11924049270635;[0.017654300027061254, 0.01639679999789223, 0.016297299996949732, 0.01717169996118173];61;3;0.04986579995602369;7.tif;mask.tiff;0.14;right;['right'];0.2090281000128016;1;0.768;2.8259067999897525;55
233;S08;A;pre;3;60.11924049270635;[0.01510189997497946, 0.017438900016713887, 0.016476399963721633, 0.016975300037302077];63;3;0.0508906000177376;8.tif;mask.tiff;0.14;right;['right'];0.1887791000190191;1;1.136;3.1718992000096478;57
234;S08;A;pre;3;60.11924049270635;[0.01749940001172945, 0.015851299976930022, 0.016388799995183945, 0.017689700005576015];23;3;0.04992979997768998;8.tif;mask.tiff;0.14;right;['right'];0.20317350002005696;1;0.879;2.9198478999896906;57
235;S08;A;pre;3;60.11924049270635;[0.015407699975185096, 0.01719280000543222, 0.016478899982757866, 0.016864800010807812];10;2;0.0505364999989979;3.tif;mask.tiff;-0.14;left;['right'];0.7494628999847919;0;5.96;8.5489130000351;36
236;S08;A;pre;3;60.11924049270635;[0.01679979998152703, 0.015923200000543147, 0.016635900014080107, 0.016459599952213466];52;2;0.04901869996683672;7.tif;mask.tiff;-0.14;right;['left'];0.5971681999508291;0;3.456;5.897309299965855;38
237;S08;A;pre;3;60.11924049270635;[0.01649180002277717, 0.016858400020282716, 0.016433199984021485, 0.01637299999129027];89;5;0.04966459999559447;blank.tiff;mask.tiff;0.14;a;['left'];0.4912828000378795;0;1.621;3.958517999970354;81
238;S08;A;pre;3;60.11924049270635;[0.01603389997035265, 0.016683700028806925, 0.016092399950139225, 0.016902500006835908];5;1;0.04967859998578206;7.tif;mask.tiff;0.14;right;['left'];0.39505809999536723;0;1.766;3.9948193000163883;23
239;S08;A;pre;3;60.11924049270635;[0.016197499993722886, 0.017553500016219914, 0.01656730001559481, 0.016143099986948073];1;1;0.0502639000187628;2.tif;mask.tiff;0.14;left;['left'];1.060247600020375;1;1.392;4.293825900007505;19
240;S08;A;pre;3;60.11924049270635;[0.01687409996520728, 0.01720320002641529, 0.017120599979534745, 0.01601770002162084];17;3;0.050341500027570873;2.tif;mask.tiff;0.14;left;['left'];0.6859910999774002;1;3.511;6.03661040001316;51
241;S08;A;pre;3;60.11924049270635;[0.01803119998658076, 0.015313000010792166, 0.017617100034840405, 0.016461399965919554];97;4;0.049391500011552125;blank.tiff;mask.tiff;0.14;a;['right'];1.3045002999715507;0;2.092;5.237104400002863;65
242;S08;A;pre;3;60.11924049270635;[0.015117299975827336, 0.016151399991940707, 0.01715390000026673, 0.016132100019603968];27;4;0.049437400011811405;3.tif;mask.tiff;0.14;left;['left'];0.5659754000371322;1;0.963;3.3653228000039235;69
243;S08;A;pre;3;60.11924049270635;[0.016362199967261404, 0.01699259999440983, 0.01656460005324334, 0.016111699980683625];49;2;0.04966890002833679;2.tif;mask.tiff;0.14;left;['left'];0.6149524999782443;1;1.439;3.8982772000017576;35
244;S08;A;pre;3;60.11924049270635;[0.015583599975798279, 0.01700160000473261, 0.017158799979370087, 0.0156694000470452];83;2;0.0498298000311479;blank.tiff;mask.tiff;0.14;a;['right'];0.3532948999782093;0;1.364;3.5524709000019357;33
245;S08;A;pre;3;60.11924049270635;[0.01766489999135956, 0.016792099981103092, 0.016124800022225827, 0.017785999982152134];46;1;0.050702899985481054;8.tif;mask.tiff;-0.14;right;['right'];0.20023209997452796;1;2.683;4.717169900017325;24
246;S08;A;pre;3;60.11924049270635;[0.016331299964804202, 0.017350500042084605, 0.016440899984445423, 0.016459800011944026];4;1;0.05025120003847405;7.tif;mask.tiff;-0.14;right;['right'];0.17565789999207482;1;0.789;2.8093649000511505;22
247;S08;A;pre;3;60.11924049270635;[0.016466200002469122, 0.016914299980271608, 0.016467300010845065, 0.016719200008083135];66;4;0.05010079999919981;3.tif;mask.tiff;-0.14;left;['right'];0.3698394000530243;0;4.763;6.969377400004305;68
248;S08;A;pre;3;60.11924049270635;[0.015420800016727298, 0.016587499994784594, 0.01788729999680072, 0.015375300019513816];22;3;0.04985010001109913;8.tif;mask.tiff;-0.14;right;['right'];0.2239117000135593;1;0.743;2.8063785000122152;56
249;S08;A;pre;3;60.11924049270635;[0.016508700035046786, 0.016761999984737486, 0.016084700007922947, 0.017288499977439642];71;4;0.050135199970100075;8.tif;mask.tiff;0.14;right;['right'];0.30138729995815083;1;1.257;3.401903800026048;73
250;S08;A;pre;3;60.11924049270635;[0.016832199995405972, 0.017193100007716566, 0.015736500034108758, 0.017192100000102073];81;1;0.0501217000419274;blank.tiff;mask.tiff;0.14;a;['right'];0.16037900000810623;0;1.408;3.410248000000138;17
251;S08;A;pre;3;60.11924049270635;[0.016638000030070543, 0.01697029999922961, 0.01593629998387769, 0.01773030002368614];3;1;0.05063690000679344;3.tif;mask.tiff;0.14;left;['left'];0.19668829999864101;1;2.19;4.229272399970796;21
252;S08;A;pre;3;60.11924049270635;[0.016596500005107373, 0.01663550001103431, 0.01678329997230321, 0.016500200028531253];19;3;0.049919000011868775;3.tif;mask.tiff;0.14;left;['left'];0.30337219999637455;1;0.877;3.0206240999978036;53
253;S08;A;pre;3;60.11924049270635;[0.017032699950505048, 0.016710700001567602, 0.01649599999655038, 0.017273200035560876];21;3;0.05047990003367886;7.tif;mask.tiff;0.14;right;['right'];0.20022529998095706;1;0.923;2.9665923999855295;55
254;S08;A;pre;3;60.11924049270635;[0.01751550001790747, 0.016205299994908273, 0.016677399980835617, 0.016466900007799268];78;5;0.04934959998354316;8.tif;mask.tiff;-0.14;right;['right'];0.27361020003445446;1;1.61;3.723482600005809;88
255;S08;A;pre;3;60.11924049270635;[0.01622779999161139, 0.0171838000533171, 0.016323699965141714, 0.016949000011663884];18;3;0.0504565000301227;3.tif;mask.tiff;-0.14;left;['left'];0.6655846000066958;0;0.916;3.4324319000006653;52
256;S08;A;pre;3;60.11924049270635;[0.01689050003187731, 0.015902499959338456, 0.017144799989182502, 0.016711800009943545];31;4;0.0497590999584645;8.tif;mask.tiff;0.14;right;['right'];0.20209380000596866;1;0.724;2.7693466000491753;73
257;S08;A;pre;3;60.11924049270635;[0.017565299989655614, 0.01692429999820888, 0.016356400039512664, 0.016062999959103763];53;2;0.04934369999682531;7.tif;mask.tiff;0.14;right;['right'];0.21030129998689517;1;1.385;3.4424584999796934;39
258;S08;A;pre;3;60.11924049270635;[0.01754629996139556, 0.015933500020764768, 0.01660149998497218, 0.016933800012338907];54;2;0.049468800018075854;8.tif;mask.tiff;-0.14;right;['right'];0.2227343000122346;1;0.896;2.9559157000039704;40
259;S08;A;pre;3;60.11924049270635;[0.01605299999937415, 0.017041699960827827, 0.017026200017426163, 0.01690829999279231];15;2;0.0509761999710463;8.tif;mask.tiff;0.14;right;['right'];0.23599059996195138;1;1.024;3.103338699962478;41
260;S08;A;pre;3;60.11924049270635;[0.016816499992273748, 0.017378699965775013, 0.016639500041492283, 0.016335799999069422];74;5;0.05035400000633672;3.tif;mask.tiff;-0.14;left;['left'];0.5252231000340544;0;0.985;3.358395599992946;84
261;S08;A;pre;3;60.11924049270635;[0.016609099984634668, 0.016788900014944375, 0.017584199958946556, 0.016833100002259016];77;5;0.051206199976149946;7.tif;mask.tiff;0.14;right;['right'];0.14875260001281276;0;1.078;3.0660951000172645;87
262;S08;A;pre;3;60.11924049270635;[0.017555099970195442, 0.016052700055297464, 0.016175199998542666, 0.016412799945101142];39;5;0.04864069999894127;8.tif;mask.tiff;0.14;right;['right'];0.20280580001417547;1;0.731;2.7687463000183925;89
263;S08;A;pre;3;60.11924049270635;[0.016640899993944913, 0.016968499985523522, 0.016405000002123415, 0.016722499975003302];6;1;0.05009599996265024;8.tif;mask.tiff;-0.14;right;['left'];0.2574645999702625;1;1.052;3.15725950000342;24
264;S08;A;pre;3;60.11924049270635;[0.015932700014673173, 0.01736130000790581, 0.015894899959675968, 0.017940299992915243];94;3;0.05119649996049702;blank.tiff;mask.tiff;-0.14;a;['right'];0.6045372000080533;0;1.056;3.5855248000007123;48
265;S08;A;pre;3;60.11924049270635;[0.016184700012672693, 0.01778049999848008, 0.01631400000769645, 0.018150399962905794];51;2;0.052244899969082326;3.tif;mask.tiff;0.14;left;['right'];0.1953994000214152;0;0.978;3.0130199000122957;37
266;S08;A;pre;3;60.11924049270635;[0.01585620001424104, 0.015989899984560907, 0.01705650001531467, 0.01742690004175529];16;3;0.050473300041630864;2.tif;mask.tiff;-0.14;left;['left'];0.37160109996329993;1;0.812;3.02260850003222;50
267;S08;A;pre;3;60.11924049270635;[0.016941600013524294, 0.01611849997425452, 0.01744600001256913, 0.016821900033392012];38;5;0.05038640002021566;8.tif;mask.tiff;-0.14;right;['right'];0.22274719999404624;1;0.989;3.0557000000262633;88
268;S08;A;pre;3;60.11924049270635;[0.01723219995619729, 0.016263200028333813, 0.017026999965310097, 0.01639699999941513];34;5;0.04968719999305904;3.tif;mask.tiff;-0.14;left;['left'];1.7446430000127293;1;1.143;4.727967199985869;84
269;S08;A;pre;3;60.11924049270635;[0.016501499980222434, 0.016409299976658076, 0.0180769000435248, 0.015457900008186698];0;1;0.049944100028369576;2.tif;mask.tiff;-0.14;left;['left'];0.3765895999968052;1;1.11;3.3258165999432094;18
270;S08;A;pre;3;60.11924049270635;[0.016272899985779077, 0.017080600024200976, 0.01606649998575449, 0.017117700015660375];92;2;0.05026480002561584;blank.tiff;mask.tiff;-0.14;a;['left'];0.4360946000088006;0;0.913;3.1857870999956504;32
271;S08;A;pre;3;60.11924049270635;[0.016611099999863654, 0.016321000002790242, 0.01731989998370409, 0.01663990004453808];88;5;0.05028080003103241;blank.tiff;mask.tiff;-0.14;a;['right'];0.29634370002895594;0;1.285;3.429032600019127;80
272;S08;A;pre;3;60.11924049270635;[0.01742789999116212, 0.015920199977699667, 0.01679690001765266, 0.016894400003366172];9;2;0.0496114999987185;2.tif;mask.tiff;0.14;left;['left'];0.4462169000180438;1;1.737;4.030080900003668;35
273;S08;A;pre;3;60.11924049270635;[0.01683090004371479, 0.01616120000835508, 0.017466899997089058, 0.016876599984243512];70;4;0.05050469998968765;8.tif;mask.tiff;-0.14;right;['right'];0.2538885999820195;1;0.798;2.8870420000166632;72
274;S08;A;pre;3;60.11924049270635;[0.016301100025884807, 0.019112899957690388, 0.013752800005022436, 0.015727900026831776];43;1;0.0485935999895446;3.tif;mask.tiff;0.14;left;['left'];0.6218146000173874;1;1.535;4.004552299971692;21
275;S08;A;pre;3;60.11924049270635;[0.016575599962379783, 0.016162300016731024, 0.017142699973192066, 0.016278000024612993];40;1;0.04958300001453608;2.tif;mask.tiff;-0.14;left;['left'];0.396187899983488;1;1.031;3.2640691999695264;18
276;S08;A;pre;3;60.11924049270635;[0.017385899962391704, 0.015950600034557283, 0.017190399987157434, 0.01733040000544861];57;3;0.05047140002716333;2.tif;mask.tiff;0.14;left;['left'];0.27796929999021813;1;2.343;4.4620951999677345;51
277;S08;A;pre;3;60.11924049270635;[0.016770899994298816, 0.01652279996778816, 0.01627990003908053, 0.01844009995693341];62;3;0.0512427999638021;8.tif;mask.tiff;-0.14;right;['right'];0.18569750001188368;1;0.906;2.935620000003837;56
278;S08;A;pre;3;60.11924049270635;[0.016661100031342357, 0.017213899991475046, 0.016148799972143024, 0.01632130000507459];24;4;0.04968399996869266;2.tif;mask.tiff;-0.14;left;['left'];0.21640940004726872;1;0.844;2.899565599975176;66
279;S08;A;pre;3;60.11924049270635;[0.017220299982000142, 0.016505500010680407, 0.01698650000616908, 0.016973599966149777];28;4;0.050465599982999265;7.tif;mask.tiff;-0.14;right;['right'];0.19583019998390228;1;0.879;2.9131669000489637;70
280;S08;A;pre;3;60.11924049270635;[0.017054099997039884, 0.016609299986157566, 0.016395099984947592, 0.017722300020977855];58;3;0.05072669999208301;3.tif;mask.tiff;-0.14;left;['left'];0.34819200000492856;1;2.074;4.264675699989311;52
281;S08;A;pre;3;60.11924049270635;[0.01668880000943318, 0.016703999950550497, 0.016077900014352053, 0.017682200006674975];69;4;0.050464099971577525;7.tif;mask.tiff;0.14;right;['right'];0.17715960001805797;1;0.943;2.9590312999789603;71
282;S08;A;pre;3;60.11924049270635;[0.016900099988561124, 0.0165551999816671, 0.016098499996587634, 0.01674089999869466];64;4;0.049394599976949394;2.tif;mask.tiff;-0.14;left;['left'];0.3375479999813251;1;0.793;2.97164070000872;66
283;S08;A;pre;3;60.11924049270635;[0.01663399999961257, 0.016645500028971583, 0.016948900010902435, 0.016566600010264665];84;3;0.05016100005013868;blank.tiff;mask.tiff;-0.14;a;['left'];0.29762379999738187;0;0.895;3.0315741000231355;48
284;S08;A;pre;3;60.11924049270635;[0.013219600019510835, 0.016897100023925304, 0.016638899978715926, 0.016530000022612512];42;1;0.05006600002525374;3.tif;mask.tiff;-0.14;left;['right'];0.7836379999644123;1;0.731;3.349809199979063;20
285;S08;A;pre;3;60.11924049270635;[0.01618380000581965, 0.01696009997976944, 0.016299800015985966, 0.017136699985712767];45;1;0.05039659998146817;7.tif;mask.tiff;0.14;right;['right'];0.5226454000221565;1;1.001;3.3710955000133254;23
286;S08;A;pre;3;60.11924049270635;[0.016765199950896204, 0.017501900030765682, 0.015554999990854412, 0.0169346000184305];30;4;0.049991500040050596;8.tif;mask.tiff;-0.14;right;['right'];0.19728709995979443;1;0.761;2.7972684999695048;72
287;S08;A;pre;3;60.11924049270635;[0.016448100039269775, 0.01745609997306019, 0.01603549998253584, 0.016399600019212812];60;3;0.04989119997480884;7.tif;mask.tiff;-0.14;right;['right'];0.23125079995952547;1;0.773;2.8481431999825872;54
288;S08;A;pre;3;60.11924049270635;[0.016854400048032403, 0.01715969998622313, 0.016321100003551692, 0.016616799985058606];65;4;0.05009759997483343;2.tif;mask.tiff;0.14;left;['left'];0.29374639998422936;1;0.815;2.9440831000101753;67
289;S08;A;pre;3;60.11924049270635;[0.01724439999088645, 0.01610040001105517, 0.016711299947928637, 0.016766600019764155];75;5;0.049578299978747964;3.tif;mask.tiff;0.14;left;['left'];0.19807959999889135;1;0.767;2.797971800027881;85
290;S08;A;pre;3;60.11924049270635;[0.01619999995455146, 0.016045200056396425, 0.016365299990866333, 0.01707539998460561];12;2;0.04948590003186837;7.tif;mask.tiff;-0.14;right;['right'];0.22711229999549687;1;0.689;2.759781099972315;38
291;S08;A;pre;3;60.11924049270635;[0.016757500008679926, 0.0162519000004977, 0.016978600004222244, 0.01678679999895394];48;2;0.05001730000367388;2.tif;mask.tiff;-0.14;left;['left'];0.29074090003268793;1;0.767;2.8909668999840505;34
292;S08;A;pre;3;60.11924049270635;[0.015381200006231666, 0.016729499970097095, 0.01651410001795739, 0.016712800017558038];56;3;0.04995640000561252;2.tif;mask.tiff;-0.14;left;['left'];1.3137713000178337;0;1.979;5.130135099985637;50
293;S08;A;pre;3;60.11924049270635;[0.01657640002667904, 0.0170401000068523, 0.016812599962577224, 0.016197899996768683];59;3;0.050050599966198206;3.tif;mask.tiff;0.14;left;['right'];0.48159330000635237;1;0.713;3.0308473000186495;53
294;S08;A;pre;3;60.11924049270635;[0.016667099960613996, 0.01641630002995953, 0.017793199978768826, 0.015603300009388477];82;2;0.04981280001811683;blank.tiff;mask.tiff;-0.14;a;['left'];0.47654030000558123;0;0.843;3.1598467999720015;32
295;S08;A;pre;3;60.11924049270635;[0.015837899991311133, 0.017592000018339604, 0.015407999977469444, 0.017408400017302483];80;1;0.05040840001311153;blank.tiff;mask.tiff;-0.14;a;['left'];1.2728084999835119;0;1.452;4.555764199991245;16
296;S08;A;pre;3;60.11924049270635;[0.016381499997805804, 0.017080199962947518, 0.016460100014228374, 0.016090999997686595];33;5;0.049631299974862486;2.tif;mask.tiff;0.14;left;['left'];1.1387366999988444;1;0.891;3.8725358999799937;83
297;S08;A;pre;3;60.11924049270635;[0.016349999990779907, 0.016297199996188283, 0.01755700004287064, 0.016602299991063774];72;5;0.0504565000301227;2.tif;mask.tiff;-0.14;left;['left'];0.3705043999943882;1;1.106;3.3204808000009507;82
298;S08;A;pre;3;60.11924049270635;[0.016096999985165894, 0.01685479999287054, 0.016307700017932802, 0.021455599984619766];8;2;0.05461809999542311;2.tif;mask.tiff;-0.14;left;['left'];0.617171399993822;1;1.031;3.4840183000196703;34
299;S08;A;pre;3;60.11924049270635;[0.017141000018455088, 0.016143999993801117, 0.01701489998959005, 0.0168221999774687];44;1;0.049981099960859865;7.tif;mask.tiff;-0.14;right;['right'];0.26284310000482947;1;1.076;3.1786977000301704;22
300;S08;A;pre;4;60.11924049270635;[0.016519400000106543, 0.016808099986519665, 0.01723990001482889, 0.015894300013314933];84;3;0.04994230001466349;blank.tiff;mask.tiff;-0.14;a;['left'];1.1299037000280805;0;0.948;3.9117540000006557;48
301;S08;A;pre;4;60.11924049270635;[0.01696150004863739, 0.01653470000019297, 0.016207799955736846, 0.017135700036305934];32;5;0.04987819999223575;2.tif;mask.tiff;-0.14;left;['left'];0.4055971000343561;0;1.972;4.22172639996279;82
302;S08;A;pre;4;60.11924049270635;[0.016584600030910224, 0.01642790000187233, 0.016851399966981262, 0.016832199995405972];1;1;0.050111499964259565;2.tif;mask.tiff;0.14;left;['right'];5.140488899953198;1;0.999;7.973064099962357;19
303;S08;A;pre;4;60.11924049270635;[0.01702049997402355, 0.017726199992466718, 0.015781500027514994, 0.01675850001629442];41;1;0.05026620003627613;2.tif;mask.tiff;0.14;left;['left'];0.16681480000261217;1;1.032;3.0317316000000574;19
304;S08;A;pre;4;60.11924049270635;[0.01823679998051375, 0.015516500046942383, 0.016095699975267053, 0.0174253000295721];19;3;0.049037500051781535;3.tif;mask.tiff;0.14;left;['left'];0.2548180000158027;1;0.873;2.9714632999966852;53
305;S08;A;pre;4;60.11924049270635;[0.016610699996817857, 0.016100200009532273, 0.017114499991293997, 0.016890100028831512];40;1;0.05010480002965778;2.tif;mask.tiff;-0.14;left;['left'];0.3486812000046484;1;0.972;3.164716800034512;18
306;S08;A;pre;4;60.11924049270635;[0.01715680002234876, 0.015716099995188415, 0.01775860000634566, 0.016224399965722114];14;2;0.04969909996725619;8.tif;mask.tiff;-0.14;right;['right'];0.19112779997522011;1;1.015;3.0415626000030898;40
307;S08;A;pre;4;60.11924049270635;[0.01549609994981438, 0.01765910000540316, 0.015826900023967028, 0.01686500001233071];62;3;0.0503510000417009;8.tif;mask.tiff;-0.14;right;['right'];0.1682001000153832;1;0.982;2.984891999978572;56
308;S08;A;pre;4;60.11924049270635;[0.017864599998574704, 0.016360300011001527, 0.015734199958387762, 0.01734520000172779];7;1;0.04943969997111708;8.tif;mask.tiff;0.14;right;['right'];0.19519060000311583;1;0.956;2.99591410002904;25
309;S08;A;pre;4;60.11924049270635;[0.016630399972200394, 0.01766390004195273, 0.01662650000071153, 0.01569149998249486];68;4;0.04998190002515912;7.tif;mask.tiff;-0.14;right;['right'];1.4819773000199348;0;0.88;4.198996499995701;70
310;S08;A;pre;4;60.11924049270635;[0.017205099982675165, 0.0167537999805063, 0.016658600012306124, 0.01608869998017326];63;3;0.049501099972985685;8.tif;mask.tiff;0.14;right;['right'];0.19443780003348365;1;0.914;2.9444133000215515;57
311;S08;A;pre;4;60.11924049270635;[0.017666100000496954, 0.01597299997229129, 0.016535400005523115, 0.01719390001380816];45;1;0.04970229999162257;7.tif;mask.tiff;0.14;right;['right'];0.18801299994811416;1;0.806;2.8381229999940842;23
312;S08;A;pre;4;60.11924049270635;[0.016299299953971058, 0.01750670000910759, 0.01991710002766922, 0.012868099962361157];25;4;0.05029189999913797;2.tif;mask.tiff;0.14;left;['left'];0.4280528999515809;1;0.803;3.0774945999728516;67
313;S08;A;pre;4;60.11924049270635;[0.016416799975559115, 0.017359200050123036, 0.01539089996367693, 0.017233800026588142];22;3;0.04998390004038811;8.tif;mask.tiff;-0.14;right;['right'];0.1879979000077583;1;0.813;2.8366505000158213;56
314;S08;A;pre;4;60.11924049270635;[0.01642669999273494, 0.017147399950772524, 0.016224200022406876, 0.017731100029777735];69;4;0.051102700002957135;7.tif;mask.tiff;0.14;right;['right'];0.5291340000112541;0;1.123;3.4942949000396766;71
315;S08;A;pre;4;60.11924049270635;[0.015826200018636882, 0.017300000006798655, 0.016524999984540045, 0.016944000031799078];54;2;0.05076900002313778;8.tif;mask.tiff;-0.14;right;['right'];0.27459609997458756;1;1.864;3.973556399985682;40
316;S08;A;pre;4;60.11924049270635;[0.01705889997538179, 0.016208100016228855, 0.017406900005880743, 0.016927899967413396];72;5;0.050542899989522994;2.tif;mask.tiff;-0.14;left;['left'];0.43324119999306276;1;0.967;3.249606700032018;82
317;S08;A;pre;4;60.11924049270635;[0.01576260000001639, 0.017920500016771257, 0.015916099946480244, 0.016581400006543845];85;3;0.050417999969795346;blank.tiff;mask.tiff;0.14;a;['right'];0.25100409996230155;0;0.879;2.9682856000144966;49
318;S08;A;pre;4;60.11924049270635;[0.01646080001955852, 0.01718510000500828, 0.01599960000021383, 0.017212799983099103];37;5;0.050397499988321215;7.tif;mask.tiff;0.14;right;['right'];0.1752318000071682;1;0.707;2.724214799993206;87
319;S08;A;pre;4;60.11924049270635;[0.01333440002053976, 0.016682399960700423, 0.016876599984243512, 0.016148800030350685];3;1;0.04970779997529462;3.tif;mask.tiff;0.14;left;['left'];0.26113250001799315;1;0.839;2.944086299976334;21
320;S08;A;pre;4;60.11924049270635;[0.016966300026979297, 0.016366399999242276, 0.016523499973118305, 0.017331300012301654];61;3;0.050221199984662235;7.tif;mask.tiff;0.14;right;['right'];0.1896740000229329;1;0.969;3.0062432999839075;55
321;S08;A;pre;4;60.11924049270635;[0.015974199981428683, 0.016919200017582625, 0.017128199979197234, 0.01620440004626289];59;3;0.05025180004304275;3.tif;mask.tiff;0.14;left;['left'];0.2629413999966346;1;1.005;3.112678000004962;53
322;S08;A;pre;4;60.11924049270635;[0.016517799987923354, 0.01689349999651313, 0.016617300047073513, 0.016689499956555665];34;5;0.050200300000142306;3.tif;mask.tiff;-0.14;left;['left'];0.9004664999665692;0;0.988;3.733336200006306;84
323;S08;A;pre;4;60.11924049270635;[0.01647989999037236, 0.01680270000360906, 0.016846999991685152, 0.01677180000115186];86;4;0.05042149999644607;blank.tiff;mask.tiff;-0.14;a;['left'];0.22198730002855882;0;0.887;2.9552960000000894;64
324;S08;A;pre;4;60.11924049270635;[0.017206299991812557, 0.016206400003284216, 0.016503199993167073, 0.01703540002927184];33;5;0.04974500002572313;2.tif;mask.tiff;0.14;left;['left'];0.23955160001059994;1;1.16;3.23875560000306;83
325;S08;A;pre;4;60.11924049270635;[0.016866400022991, 0.016877399990335107, 0.015899699996225536, 0.0175986000103876];26;4;0.05037569999694824;3.tif;mask.tiff;-0.14;left;['left'];0.26015230000484735;1;0.842;2.94326169998385;68
326;S08;A;pre;4;60.11924049270635;[0.01578809996135533, 0.01700009999331087, 0.016581400006543845, 0.016464399988763034];28;4;0.05004589998861775;7.tif;mask.tiff;-0.14;right;['right'];0.5391379999928176;0;1.77;4.156287199992221;70
327;S08;A;pre;4;60.11924049270635;[0.016109900025185198, 0.016971500008367002, 0.01608739997027442, 0.017334100033622235];20;3;0.050393000012263656;7.tif;mask.tiff;-0.14;right;['right'];0.2235450999578461;1;1.196;3.2573451999924146;54
328;S08;A;pre;4;60.11924049270635;[0.016354600025806576, 0.017009499948471785, 0.017303300031926483, 0.015909900015685707];70;4;0.050222699996083975;8.tif;mask.tiff;-0.14;right;['right'];0.21849169995402917;1;0.88;2.9361297999857925;72
329;S08;A;pre;4;60.11924049270635;[0.01675809995504096, 0.016689900017809123, 0.0166118000051938, 0.016751500021200627];38;5;0.05005320004420355;8.tif;mask.tiff;-0.14;right;['right'];0.23263059998862445;1;1.276;3.3492159000015818;88
330;S08;A;pre;4;60.11924049270635;[0.01642940001329407, 0.017379499971866608, 0.016104599984828383, 0.016746400040574372];89;5;0.05023049999726936;blank.tiff;mask.tiff;0.14;a;['left'];0.41277529997751117;0;0.854;3.112700799945742;81
331;S08;A;pre;4;60.11924049270635;[0.016319399990607053, 0.01644910004688427, 0.01703989994712174, 0.016800500045064837];23;3;0.050289500039070845;8.tif;mask.tiff;0.14;right;['right'];0.18805539997993037;1;0.8;2.8383973999880254;57
332;S08;A;pre;4;60.11924049270635;[0.016520799952559173, 0.017996700014919043, 0.015236000006552786, 0.017245399998500943];24;4;0.05047810001997277;2.tif;mask.tiff;-0.14;left;['left'];0.3698774999938905;1;0.884;3.1023397999815643;66
333;S08;A;pre;4;60.11924049270635;[0.01661310001509264, 0.016555799986235797, 0.01687529997434467, 0.016249500040430576];74;5;0.049680600001011044;3.tif;mask.tiff;-0.14;left;['left'];20.702129999990575;0;0.96;23.50141640001675;84
334;S08;A;pre;4;60.11924049270635;[0.01629469997715205, 0.017134100024122745, 0.016855199995916337, 0.016646699979901314];21;3;0.050635999999940395;7.tif;mask.tiff;0.14;right;['right'];0.20135520002804697;1;1.011;3.051113300025463;55
335;S08;A;pre;4;60.11924049270635;[0.017683699959889054, 0.016150100040249527, 0.016344400006346405, 0.017506999953184277];52;2;0.05000149999978021;7.tif;mask.tiff;-0.14;right;['right'];0.3008714999887161;0;1.519;3.668448599986732;38
336;S08;A;pre;4;60.11924049270635;[0.016800199984572828, 0.016944499977398664, 0.016324900032486767, 0.01618059998145327];94;3;0.0494499999913387;blank.tiff;mask.tiff;-0.14;a;['right'];0.364984399988316;0;0.885;3.0997323999763466;48
337;S08;A;pre;4;60.11924049270635;[0.01717449998250231, 0.016725199995562434, 0.01747850002720952, 0.016554499976336956];60;3;0.05075819999910891;7.tif;mask.tiff;-0.14;right;['right'];0.24967250000918284;1;0.745;2.8328374999691732;54
338;S08;A;pre;4;60.11924049270635;[0.016637799970339984, 0.016780100006144494, 0.016715100035071373, 0.01649769995128736];46;1;0.049992899992503226;8.tif;mask.tiff;-0.14;right;['right'];0.2577826999477111;1;1.172;3.273679199977778;24
339;S08;A;pre;4;60.11924049270635;[0.017102699959650636, 0.016454200027510524, 0.016334199986886233, 0.016558100003749132];77;5;0.04934650001814589;7.tif;mask.tiff;0.14;right;['right'];0.23819359997287393;1;0.824;2.904536099988036;87
340;S08;A;pre;4;60.11924049270635;[0.017114299989771098, 0.016142799984663725, 0.017375499999616295, 0.017155800014734268];83;2;0.05067409999901429;blank.tiff;mask.tiff;0.14;a;['left'];0.20882489997893572;0;0.908;2.9595046999747865;33
341;S08;A;pre;4;60.11924049270635;[0.016791699978057295, 0.017120700038503855, 0.01692259998526424, 0.015733500011265278];80;1;0.049776800035033375;blank.tiff;mask.tiff;-0.14;a;['left'];0.252238999994006;0;0.949;3.03376030002255;16
342;S08;A;pre;4;60.11924049270635;[0.012325899966526777, 0.01661639998201281, 0.01666350004961714, 0.01598209998337552];67;4;0.04926200001500547;3.tif;mask.tiff;0.14;left;['left'];0.20852210000157356;1;0.827;2.875380999990739;69
343;S08;A;pre;4;60.11924049270635;[0.015998899994883686, 0.017111500026658177, 0.017404899990651757, 0.016418299986980855];81;1;0.05093470000429079;blank.tiff;mask.tiff;0.14;a;['left'];0.18183660000795498;0;0.871;2.897839799989015;17
344;S08;A;pre;4;60.11924049270635;[0.0171509999781847, 0.01649780001025647, 0.016130700008943677, 0.017669300024863333];50;2;0.05029780004406348;3.tif;mask.tiff;-0.14;left;['left'];0.250313600001391;0;1.12;3.232468999980483;36
345;S08;A;pre;4;60.11924049270635;[0.017711799999233335, 0.015675699978601187, 0.01688140002079308, 0.017639599973335862];66;4;0.05019669997273013;3.tif;mask.tiff;-0.14;left;['left'];0.9958961000083946;1;1.482;4.3126873999717645;68
346;S08;A;pre;4;60.11924049270635;[0.015229000011458993, 0.016607900033704937, 0.016578299982938915, 0.016240499971900135];56;3;0.04942669998854399;2.tif;mask.tiff;-0.14;left;['left'];0.23833189997822046;1;0.876;2.9589934999821708;50
347;S08;A;pre;4;60.11924049270635;[0.017084899998735636, 0.016223000013269484, 0.017463100026361644, 0.016032999963499606];99;5;0.049719100003130734;blank.tiff;mask.tiff;0.14;a;['left'];0.7658144000452012;0;3.729;6.332005400035996;81
348;S08;A;pre;4;60.11924049270635;[0.016184400010388345, 0.016395899991039187, 0.016865999961737543, 0.016759700025431812];42;1;0.05002159997820854;3.tif;mask.tiff;-0.14;left;['left'];0.3930288999690674;1;0.964;3.1918072000262327;20
349;S08;A;pre;4;60.11924049270635;[0.016597400011960417, 0.017162100004497916, 0.0159169000107795, 0.016843799967318773];51;2;0.04992279998259619;3.tif;mask.tiff;0.14;left;['left'];0.2450239000027068;0;1.751;3.827011900022626;37
350;S08;A;pre;4;60.11924049270635;[0.0160415000282228, 0.016028399986680597, 0.01648300001397729, 0.01726079999934882];31;4;0.049772200000006706;8.tif;mask.tiff;0.14;right;['right'];0.16987990000052378;1;0.814;2.8201170999673195;73
351;S08;A;pre;4;60.11924049270635;[0.01759980001952499, 0.016004899982362986, 0.016320599999744445, 0.01786530000390485];76;5;0.05019079998601228;7.tif;mask.tiff;-0.14;right;['right'];0.6269772999803536;0;4.461;6.925670899974648;86
352;S08;A;pre;4;60.11924049270635;[0.0167537999805063, 0.01638530002674088, 0.016817299998365343, 0.01713170000584796];87;4;0.05033430003095418;blank.tiff;mask.tiff;0.14;a;['left'];0.2477530999458395;0;1.055;3.1468668000306934;65
353;S08;A;pre;4;60.11924049270635;[0.01702229998772964, 0.015637700038496405, 0.01710499997716397, 0.01638639997690916];98;5;0.049129099992569536;blank.tiff;mask.tiff;-0.14;a;['left'];0.4320176999899559;0;0.943;3.214891000010539;80
354;S08;A;pre;4;60.11924049270635;[0.016169800015632063, 0.017704600002616644, 0.01568279997445643, 0.016406700015068054];82;2;0.04979409999214113;blank.tiff;mask.tiff;-0.14;a;['left'];0.33154350001132116;0;0.897;3.0643566999933682;32
355;S08;A;pre;4;60.11924049270635;[0.018196700024418533, 0.014852799999061972, 0.01743419998092577, 0.016180000035092235];2;1;0.048467000015079975;3.tif;mask.tiff;-0.14;left;['left'];0.22045870003057644;1;0.867;2.919137299992144;20
356;S08;A;pre;4;60.11924049270635;[0.017347800021525472, 0.016281599993817508, 0.021054400014691055, 0.012792899971827865];90;1;0.05012889998033643;blank.tiff;mask.tiff;-0.14;a;['left'];0.20952689996920526;0;0.843;2.8927139999577776;16
357;S08;A;pre;4;60.11924049270635;[0.015457200002856553, 0.016969500051345676, 0.016308199963532388, 0.016600600036326796];43;1;0.04987830005120486;3.tif;mask.tiff;0.14;left;['left'];0.2436691999901086;1;0.777;2.8594921000185423;21
358;S08;A;pre;4;60.11924049270635;[0.0164991999627091, 0.01703240000642836, 0.016442399995867163, 0.018189100024756044];97;4;0.05166390002705157;blank.tiff;mask.tiff;0.14;a;['left'];0.19936229998711497;0;0.894;2.932041499996558;65
359;S08;A;pre;4;60.11924049270635;[0.016138600010890514, 0.016747399989981204, 0.016807799984235317, 0.01734210003633052];47;1;0.05089730001054704;8.tif;mask.tiff;0.14;right;['right'];0.183386699995026;1;0.738;2.7667015999904834;25
360;S08;A;pre;4;60.11924049270635;[0.016548599989619106, 0.017128399980720133, 0.016273800050839782, 0.016710700001567602];15;2;0.050112900033127517;8.tif;mask.tiff;0.14;right;['right'];0.16206159995635971;1;1.038;3.044643000001088;41
361;S08;A;pre;4;60.11924049270635;[0.016319199989084154, 0.016544800018891692, 0.01761189999524504, 0.015950399974826723];44;1;0.050107099988963455;7.tif;mask.tiff;-0.14;right;['right'];1.2150060000130907;1;1.072;4.13145230000373;22
362;S08;A;pre;4;60.11924049270635;[0.01658809999935329, 0.01679989998228848, 0.016671999997925013, 0.016226199979428202];9;2;0.049698099959641695;2.tif;mask.tiff;0.14;left;['left'];0.24264760001096874;1;0.931;3.0096392999985255;35
363;S08;A;pre;4;60.11924049270635;[0.016479099984280765, 0.016139600018505007, 0.01825019996613264, 0.015592900046613067];11;2;0.049982700031250715;3.tif;mask.tiff;0.14;left;['left'];0.4988899000454694;1;6.58;8.914993899990804;37
364;S08;A;pre;4;60.11924049270635;[0.015581800020299852, 0.01762810000218451, 0.016198999946936965, 0.01629150001099333];65;4;0.05011859996011481;2.tif;mask.tiff;0.14;left;['left'];0.22028700000373647;1;0.844;2.9041456000413746;67
365;S08;A;pre;4;60.11924049270635;[0.01522060000570491, 0.0168044000165537, 0.01721760001964867, 0.016555099980905652];58;3;0.05057710001710802;3.tif;mask.tiff;-0.14;left;['left'];0.2886274000047706;1;1.287;3.4214957000222057;52
366;S08;A;pre;4;60.11924049270635;[0.01680419995682314, 0.017790500016417354, 0.01608860003761947, 0.016444899956695735];35;5;0.05032400001073256;3.tif;mask.tiff;0.14;left;['left'];0.5579468000214547;1;1.971;4.374918899964541;85
367;S08;A;pre;4;60.11924049270635;[0.016289499995764345, 0.01666199997998774, 0.017079400015063584, 0.016297299996949732];12;2;0.05003869999200106;7.tif;mask.tiff;-0.14;right;['right'];0.2310855000396259;1;0.839;2.9136303000268526;38
368;S08;A;pre;4;60.11924049270635;[0.016459700011182576, 0.016395099984947592, 0.01714670000365004, 0.016709099989384413];4;1;0.050250899977982044;7.tif;mask.tiff;-0.14;right;['right'];0.1937187999719754;0;0.926;2.9601549999788404;22
369;S08;A;pre;4;60.11924049270635;[0.016428300004918128, 0.016532699984963983, 0.01667700003599748, 0.01674960000673309];96;4;0.04995930002769455;blank.tiff;mask.tiff;-0.14;a;['right'];1.4683336000307463;0;0.937;4.251970599987544;64
370;S08;A;pre;4;60.11924049270635;[0.017501400026958436, 0.016149899980518967, 0.017343199986498803, 0.016796600015368313];79;5;0.05028969998238608;8.tif;mask.tiff;0.14;right;['right'];0.1972315000020899;1;0.939;2.9807674000039697;89
371;S08;A;pre;4;60.11924049270635;[0.017389899992849678, 0.015875799988862127, 0.016867700032889843, 0.016388399992138147];92;2;0.04913190001389012;blank.tiff;mask.tiff;-0.14;a;['left'];0.8013582999701612;0;0.98;3.6176047999761067;32
372;S08;A;pre;4;60.11924049270635;[0.015172899991739541, 0.016642300004605204, 0.017534199985675514, 0.016785500047262758];36;5;0.050962000037543476;7.tif;mask.tiff;-0.14;right;['right'];0.18141000001924112;1;0.844;2.8650282999733463;86
373;S08;A;pre;4;60.11924049270635;[0.014809599961154163, 0.01687230000970885, 0.01642350002657622, 0.017188899975735694];48;2;0.05048470001202077;2.tif;mask.tiff;-0.14;left;['left'];0.24045199999818578;1;0.962;3.0397699999739416;34
374;S08;A;pre;4;60.11924049270635;[0.014053800026886165, 0.016889200021978468, 0.016579699993599206, 0.017147400008980185];49;2;0.05061630002455786;2.tif;mask.tiff;0.14;left;['left'];0.25966690003406256;1;0.893;2.9920030999928713;35
375;S08;A;pre;4;60.11924049270635;[0.016869199986103922, 0.016170700022485107, 0.017992199980653822, 0.015069900022353977];6;1;0.04923280002549291;8.tif;mask.tiff;-0.14;right;['right'];0.19825110002420843;1;1.268;3.315558299946133;24
376;S08;A;pre;4;60.11924049270635;[0.015671300003305078, 0.016400299966335297, 0.016871800005901605, 0.017082600039429963];5;1;0.050354700011666864;7.tif;mask.tiff;0.14;right;['right'];0.21536429994739592;1;0.802;2.865742900001351;23
377;S08;A;pre;4;60.11924049270635;[0.01575099996989593, 0.017184199998155236, 0.015560800035018474, 0.01729330001398921];53;2;0.05003830004716292;7.tif;mask.tiff;0.14;right;['right'];0.19043169997166842;1;0.978;3.0072258000145666;39
378;S08;A;pre;4;60.11924049270635;[0.01657009997870773, 0.016009100014343858, 0.016987600014545023, 0.016890999977476895];16;3;0.049887700006365776;2.tif;mask.tiff;-0.14;left;['left'];0.21311419998528436;1;0.873;2.930262300011236;50
379;S08;A;pre;4;60.11924049270635;[0.01571700000204146, 0.01740730000892654, 0.016409400035627186, 0.016901299997698516];93;2;0.05071800004225224;blank.tiff;mask.tiff;0.14;a;['left'];0.21244620002107695;0;1.418;3.4784033999894746;33
380;S08;A;pre;4;60.11924049270635;[0.016161000006832182, 0.017843400011770427, 0.01586179999867454, 0.016321000002790242];71;4;0.05002620001323521;8.tif;mask.tiff;0.14;right;['right'];0.26984749996336177;1;0.791;2.902159199991729;73
381;S08;A;pre;4;60.11924049270635;[0.012471699970774353, 0.016442499996628612, 0.018126400012988597, 0.015185800031758845];30;4;0.049754700041376054;8.tif;mask.tiff;-0.14;right;['right'];0.23977190000005066;1;0.839;2.923976299993228;72
382;S08;A;pre;4;60.11924049270635;[0.0174369000014849, 0.01594939996721223, 0.017093800008296967, 0.017160899995360523];73;5;0.05020409997086972;2.tif;mask.tiff;0.14;left;['left'];0.23004589998163283;1;2.647;4.712387200037483;83
383;S08;A;pre;4;60.11924049270635;[0.016011500032618642, 0.017600299965124577, 0.015616399992723018, 0.016309300030115992];0;1;0.04952599998796359;2.tif;mask.tiff;-0.14;left;['left'];0.24290450004627928;0;1.09;3.1758758000214584;18
384;S08;A;pre;4;60.11924049270635;[0.018002299999352545, 0.015511400008108467, 0.017144799989182502, 0.016538399970158935];78;5;0.049194599967449903;8.tif;mask.tiff;-0.14;right;['right'];0.19220420002238825;1;1.02;3.058983299997635;88
385;S08;A;pre;4;60.11924049270635;[0.014998700004070997, 0.016704599955119193, 0.01664730004267767, 0.01628849998814985];95;3;0.049640399985946715;blank.tiff;mask.tiff;0.14;a;['left'];0.24074400000972673;0;0.847;2.9233412999892607;49
386;S08;A;pre;4;60.11924049270635;[0.015846399997826666, 0.01627219998044893, 0.017843700014054775, 0.015575500030536205];75;5;0.04969140002503991;3.tif;mask.tiff;0.14;left;['left'];0.474417999968864;1;0.909;3.224222299992107;85
387;S08;A;pre;4;60.11924049270635;[0.017686499981209636, 0.015904800035059452, 0.016185899963602424, 0.016747599991504103];55;2;0.04883829999016598;8.tif;mask.tiff;0.14;right;['right'];0.22888850001618266;1;0.797;2.882739499968011;41
388;S08;A;pre;4;60.11924049270635;[0.016510299989022315, 0.015919199970085174, 0.016703200002666563, 0.017744500015396625];8;2;0.05036689998814836;2.tif;mask.tiff;-0.14;left;['left'];0.25859480001963675;1;1.497;3.592196999990847;34
389;S08;A;pre;4;60.11924049270635;[0.016196100041270256, 0.017305799992755055, 0.016369100019801408, 0.016526899999007583];13;2;0.050201800011564046;7.tif;mask.tiff;0.14;right;['right'];0.19974589999765158;1;2.034;4.065876099979505;39
390;S08;A;pre;4;60.11924049270635;[0.0178592000156641, 0.016032200015615672, 0.01651409995974973, 0.01622940000379458];29;4;0.04877569997915998;7.tif;mask.tiff;0.14;right;['left'];0.23269109998364002;0;1.389;3.4819391000200994;71
391;S08;A;pre;4;60.11924049270635;[0.014363399997819215, 0.016483400017023087, 0.01786830002674833, 0.015586199995595962];17;3;0.04993790003936738;2.tif;mask.tiff;0.14;left;['left'];0.6890352999907918;1;1.768;4.30515029997332;51
392;S08;A;pre;4;60.11924049270635;[0.015905500040389597, 0.015998799994122237, 0.016914299980271608, 0.01684310002019629];57;3;0.04975619999459013;2.tif;mask.tiff;0.14;left;['left'];0.22744889999739826;0;2.624;4.694152100011706;51
393;S08;A;pre;4;60.11924049270635;[0.01593900000443682, 0.017038999998476356, 0.016455200035125017, 0.01629930001217872];64;4;0.04979350004578009;2.tif;mask.tiff;-0.14;left;['right'];0.1917888000025414;0;1.106;3.1402736000018194;66
394;S08;A;pre;4;60.11924049270635;[0.01736429997254163, 0.016408100025728345, 0.016496500000357628, 0.0167111000046134];39;5;0.04961570003069937;8.tif;mask.tiff;0.14;right;['right'];0.27165260002948344;1;0.83;2.9548242000164464;89
395;S08;A;pre;4;60.11924049270635;[0.017277400009334087, 0.01551669999025762, 0.016906899982132018, 0.016754999989643693];91;1;0.04917859996203333;blank.tiff;mask.tiff;0.14;a;['left'];1.0253323999932036;0;0.981;3.8418664000346325;17
396;S08;A;pre;4;60.11924049270635;[0.01679269998567179, 0.016567699960432947, 0.017647800035774708, 0.016363399976398796];10;2;0.05057889997260645;3.tif;mask.tiff;-0.14;left;['left'];0.44404100003885105;1;1.061;3.3433153000078164;36
397;S08;A;pre;4;60.11924049270635;[0.01620010001352057, 0.017307400004938245, 0.016181799990590662, 0.01682959997560829];18;3;0.050318799971137196;3.tif;mask.tiff;-0.14;left;['left'];1.1195350000052713;0;13.682;16.636260400002357;52
398;S08;A;pre;4;60.11924049270635;[0.016763499996159226, 0.017503099981695414, 0.016428600007202476, 0.016880800016224384];88;5;0.050812500005122274;blank.tiff;mask.tiff;-0.14;a;['left'];0.43470670003443956;0;0.81;3.08428210002603;80
399;S08;A;pre;4;60.11924049270635;[0.01690809999126941, 0.01641169999493286, 0.01713930000551045, 0.01633889996446669];27;4;0.04988989996491;3.tif;mask.tiff;0.14;left;['right'];0.7537310000043362;1;0.828;3.4200527999782935;69
