;subject;stim;session;block;frame_rate;frame_int;trial_nb;SOA;real_SOA;target;mask;position;cor_ans;obj_rating;obj_RT;subj_rating;subj_RT;trial_duration;trigger
0;S10;A;pre;1;59.995956269694275;[0.016025699966121465, 0.01652280002599582, 0.016579599992837757, 0.01671420002821833];92;2;0.04981660004705191;blank.tiff;mask.tiff;-0.14;a;['right'];0.6544782999553718;0;1.043;3.5376485000015236;32
1;S10;A;pre;1;59.995956269694275;[0.017074599978514016, 0.01666969998041168, 0.01690660003805533, 0.01608729996951297];25;4;0.04966359998797998;2.tif;mask.tiff;0.14;left;['left'];0.6969975999672897;0;1.12;3.6638472999911755;67
2;S10;A;pre;1;59.995956269694275;[0.01653319998877123, 0.01666090002981946, 0.016394399979617447, 0.01634939998621121];55;2;0.049404699995648116;8.tif;mask.tiff;0.14;right;['right'];0.588813400012441;0;0.997;3.4220729999942705;41
3;S10;A;pre;1;59.995956269694275;[0.01612260000547394, 0.016593399981502444, 0.016736800025682896, 0.01685179997002706];66;4;0.0501819999772124;3.tif;mask.tiff;-0.14;left;['right'];0.5979157999972813;0;0.957;3.4166549000074156;68
4;S10;A;pre;1;59.995956269694275;[0.01568280003266409, 0.016506100015249103, 0.01721589994849637, 0.016544200014322996];4;1;0.05026619997806847;7.tif;mask.tiff;-0.14;right;['right'];0.5193226999836043;1;0.995;3.3519919000100344;22
5;S10;A;pre;1;59.995956269694275;[0.01664119999622926, 0.016944199975114316, 0.016181799990590662, 0.017163900018204004];37;5;0.05028989998390898;7.tif;mask.tiff;0.14;right;['right'];0.6314483999740332;1;0.895;3.365215600002557;87
6;S10;A;pre;1;59.995956269694275;[0.015813399979379028, 0.017354600015096366, 0.01651079999282956, 0.016329300007782876];54;2;0.050194700015708804;8.tif;mask.tiff;-0.14;right;['right'];0.3413018999854103;1;0.831;3.006728899956215;40
7;S10;A;pre;1;59.995956269694275;[0.016739899991080165, 0.01585599995451048, 0.017415500013157725, 0.016157899983227253];21;3;0.04942939995089546;7.tif;mask.tiff;0.14;right;['right'];0.2929774000076577;1;0.9;3.0254969999659806;55
8;S10;A;pre;1;59.995956269694275;[0.017194499960169196, 0.016086200019344687, 0.023613299999851733, 0.010034699982497841];56;3;0.04973420000169426;2.tif;mask.tiff;-0.14;left;['left'];0.8697233000420965;1;1.113;3.8195923999883235;50
9;S10;A;pre;1;59.995956269694275;[0.009104099997784942, 0.016284000012092292, 0.016371099976822734, 0.016837900038808584];27;4;0.04949300002772361;3.tif;mask.tiff;0.14;left;['left'];0.7410862999968231;1;0.947;3.5578302999492735;69
10;S10;A;pre;1;59.995956269694275;[0.017130599997472018, 0.016000600007828325, 0.017049300018697977, 0.016483699961099774];33;5;0.049533599987626076;2.tif;mask.tiff;0.14;left;['left'];0.3626301000476815;1;1.52;3.729002100008074;83
11;S10;A;pre;1;59.995956269694275;[0.016911299957428128, 0.01682830002391711, 0.01624710002215579, 0.016568199964240193];12;2;0.049643600010313094;7.tif;mask.tiff;-0.14;right;['right'];0.6793872000416741;1;1.127;3.6459631000179797;38
12;S10;A;pre;1;59.995956269694275;[0.01688730000751093, 0.01639120001345873, 0.016817399999126792, 0.016620200010947883];64;4;0.049828800023533404;2.tif;mask.tiff;-0.14;left;['left'];0.6022821999504231;1;1.059;3.5019665000145324;66
13;S10;A;pre;1;59.995956269694275;[0.01658210001187399, 0.01653299998724833, 0.017218100023455918, 0.01738969999132678];49;2;0.05114080000203103;2.tif;mask.tiff;0.14;left;['left'];0.6277276999899186;0;0.984;3.4606079000514;35
14;S10;A;pre;1;59.995956269694275;[0.01689630001783371, 0.016746200039051473, 0.01665319997118786, 0.016582900017965585];40;1;0.04998230002820492;2.tif;mask.tiff;-0.14;left;['right'];0.575399599969387;0;1.66;4.075134699989576;18
15;S10;A;pre;1;59.995956269694275;[0.016627400007564574, 0.017271799966692924, 0.01600870001129806, 0.016923499992117286];51;2;0.05020399997010827;3.tif;mask.tiff;0.14;left;['left'];0.5247456000070088;1;2.296;4.658295400033239;37
16;S10;A;pre;1;59.995956269694275;[0.009023899969179183, 0.01725610002176836, 0.01737149996915832, 0.016058100038208067];88;5;0.05068570002913475;blank.tiff;mask.tiff;-0.14;a;['right'];0.5277581000118516;0;4.396;6.793932100001257;80
17;S10;A;pre;1;59.995956269694275;[0.017197799985297024, 0.01601340004708618, 0.01728279999224469, 0.015720199968200177];80;1;0.04901640000753105;blank.tiff;mask.tiff;-0.14;a;['left'];0.12815000000409782;0;0.689;2.6609666000003926;16
18;S10;A;pre;1;59.995956269694275;[0.017647999979089946, 0.016069200006313622, 0.0170885999687016, 0.01613350003026426];35;5;0.04929130000527948;3.tif;mask.tiff;0.14;left;['left'];0.9211273000109941;1;0.661;3.4215578000294045;85
19;S10;A;pre;1;59.995956269694275;[0.014892600011080503, 0.016802600002847612, 0.016601999988779426, 0.016181700048036873];98;5;0.04958630003966391;blank.tiff;mask.tiff;-0.14;a;['right'];0.4475061999983154;0;0.926;3.213462899962906;80
20;S10;A;pre;1;59.995956269694275;[0.014189700013957918, 0.017020400031469762, 0.016301699972245842, 0.016547300037927926];8;2;0.04986940004164353;2.tif;mask.tiff;-0.14;left;['left'];0.37026420002803206;1;1.938;4.1532802999718115;34
21;S10;A;pre;1;59.995956269694275;[0.016521999961696565, 0.01709500001743436, 0.016593499982263893, 0.01673460000893101];0;1;0.05042310000862926;2.tif;mask.tiff;-0.14;left;['left'];0.47553549997974187;1;0.755;3.0923200999968685;18
22;S10;A;pre;1;59.995956269694275;[0.01665159995900467, 0.01690190000226721, 0.016658900014590472, 0.016891999985091388];87;4;0.05045280000194907;blank.tiff;mask.tiff;0.14;a;['left'];0.10806420003063977;0;1.092;3.0583573000039905;65
23;S10;A;pre;1;59.995956269694275;[0.016576600028201938, 0.016775799973402172, 0.016190700000151992, 0.016712000011466444];63;3;0.04967849998502061;8.tif;mask.tiff;0.14;right;['right'];0.2885695999721065;1;0.591;2.721650299965404;57
24;S10;A;pre;1;59.995956269694275;[0.017390799999702722, 0.016581600008066744, 0.016615200031083077, 0.016834899957757443];17;3;0.050031699996907264;2.tif;mask.tiff;0.14;left;['right'];0.2389277999754995;0;1.116;3.188968100002967;51
25;S10;A;pre;1;59.995956269694275;[0.01664719998370856, 0.016830000036861748, 0.01726059999782592, 0.01653179997811094];46;1;0.05062240001279861;8.tif;mask.tiff;-0.14;right;['right'];4.441767300013453;0;0.723;7.024510599963833;24
26;S10;A;pre;1;59.995956269694275;[0.01741640002001077, 0.015770999947562814, 0.01670220005325973, 0.01666809996822849];68;4;0.04914129996905103;7.tif;mask.tiff;-0.14;right;['right'];0.3504257000167854;1;0.793;3.0000588999828324;70
27;S10;A;pre;1;59.995956269694275;[0.008912899997085333, 0.0169232000480406, 0.01719089999096468, 0.015997799986507744];10;2;0.05011190002551302;3.tif;mask.tiff;-0.14;left;['left'];0.6285886000259779;1;3.055;5.556912400003057;36
28;S10;A;pre;1;59.995956269694275;[0.016441599989775568, 0.016601799987256527, 0.016975299979094416, 0.016399000014644116];43;1;0.04997609998099506;3.tif;mask.tiff;0.14;left;['left'];6.443297599966172;1;1.004;9.292559299967252;21
29;S10;A;pre;1;59.995956269694275;[0.01440699998056516, 0.016504400002304465, 0.017073300026822835, 0.01609910000115633];3;1;0.04967680003028363;3.tif;mask.tiff;0.14;left;['left'];0.6312478000181727;1;0.879;3.3476808999548666;21
30;S10;A;pre;1;59.995956269694275;[0.017073600029107183, 0.01594040001509711, 0.017107499996200204, 0.016704600013326854];85;3;0.04975250002462417;blank.tiff;mask.tiff;0.14;a;['right'];0.4170029999804683;0;0.762;3.01651619997574;49
31;S10;A;pre;1;59.995956269694275;[0.01709039998240769, 0.016716200043447316, 0.01693169999634847, 0.01611409999895841];75;5;0.049762000038754195;3.tif;mask.tiff;0.14;left;['left'];0.14543419994879514;1;0.803;2.778705600008834;85
32;S10;A;pre;1;59.995956269694275;[0.016306699952110648, 0.016810400004033, 0.016958800028078258, 0.016310499981045723];57;3;0.05007970001315698;2.tif;mask.tiff;0.14;left;['left'];0.05548810004256666;1;0.738;2.6392665000166744;51
33;S10;A;pre;1;59.995956269694275;[0.01748899999074638, 0.01628440001513809, 0.01651990000391379, 0.016264199977740645];23;3;0.049068499996792525;8.tif;mask.tiff;0.14;right;['left'];0.09372559998882934;1;0.795;2.7434358000173233;57
34;S10;A;pre;1;59.995956269694275;[0.01736299996264279, 0.016683600028045475, 0.016131100011989474, 0.01726829999824986];72;5;0.05008300003828481;2.tif;mask.tiff;-0.14;left;['left'];0.0987516000168398;1;0.934;2.8654435999924317;82
35;S10;A;pre;1;59.995956269694275;[0.016871300002094358, 0.016747200046665967, 0.016387399984523654, 0.01638669997919351];70;4;0.04952130001038313;8.tif;mask.tiff;-0.14;right;['left'];2.5738080000155605;0;1.44;5.856571900018025;72
36;S10;A;pre;1;59.995956269694275;[0.016813999973237514, 0.01674670004285872, 0.01711229997454211, 0.016217200027313083];9;2;0.050076200044713914;2.tif;mask.tiff;0.14;left;['left'];0.12215950002428144;1;1.323;3.2881942999665625;35
37;S10;A;pre;1;59.995956269694275;[0.016099700005725026, 0.01678639999590814, 0.016418699990026653, 0.01753299997653812];73;5;0.050738099962472916;2.tif;mask.tiff;0.14;left;['left'];0.15861589997075498;1;1.622;3.625067399989348;83
38;S10;A;pre;1;59.995956269694275;[0.016463200037833303, 0.017298199993092567, 0.01663259998895228, 0.016172199975699186];65;4;0.05010299995774403;2.tif;mask.tiff;0.14;left;['left'];0.14053430000785738;1;0.855;2.8404078000457957;67
39;S10;A;pre;1;59.995956269694275;[0.015947100007906556, 0.017213999992236495, 0.01637160003883764, 0.016702900000382215];76;5;0.05028850003145635;7.tif;mask.tiff;-0.14;right;['right'];0.14579999999841675;1;0.725;2.712322699953802;86
40;S10;A;pre;1;59.995956269694275;[0.016772800008766353, 0.016718800005037338, 0.016732799995224923, 0.016842300014104694];32;5;0.050293900014366955;2.tif;mask.tiff;-0.14;left;['left'];0.12409659998957068;1;0.822;2.79087199998321;82
41;S10;A;pre;1;59.995956269694275;[0.015951599983964115, 0.01689930004067719, 0.016903099953196943, 0.016419499996118248];1;1;0.05022189998999238;2.tif;mask.tiff;0.14;left;['right'];0.24144459998933598;0;1.572;3.6582902999944054;19
42;S10;A;pre;1;59.995956269694275;[0.005866999970749021, 0.0165434000082314, 0.016795000003185123, 0.016911800019443035];22;3;0.05025020003085956;8.tif;mask.tiff;-0.14;right;['right'];0.1404758999706246;1;0.872;2.8740400000242516;56
43;S10;A;pre;1;59.995956269694275;[0.01713019999442622, 0.01650640001753345, 0.01703369995811954, 0.016554800036828965];60;3;0.05009490001248196;7.tif;mask.tiff;-0.14;right;['right'];0.22660960000939667;1;2.542;4.610060499981046;54
44;S10;A;pre;1;59.995956269694275;[0.016386999981477857, 0.017735600005835295, 0.016178600024431944, 0.0164622999727726];18;3;0.05037650000303984;3.tif;mask.tiff;-0.14;left;['left'];0.0852962999488227;0;0.692;2.6189156000036746;52
45;S10;A;pre;1;59.995956269694275;[0.016356499982066453, 0.0167541999835521, 0.017106000042986125, 0.016938699991442263];59;3;0.050798900017980486;3.tif;mask.tiff;0.14;left;['left'];0.14643740002065897;0;0.806;2.795881600002758;53
46;S10;A;pre;1;59.995956269694275;[0.01689929998246953, 0.01613180001731962, 0.016609099984634668, 0.017633499985095114];48;2;0.0503743999870494;2.tif;mask.tiff;-0.14;left;['left'];0.7387108000111766;1;0.864;3.438489199965261;34
47;S10;A;pre;1;59.995956269694275;[0.01661470002727583, 0.01674370002001524, 0.016670499986503273, 0.016894300002604723];41;1;0.050308500009123236;2.tif;mask.tiff;0.14;left;['left'];0.10208300000522286;0;0.822;2.7682312999968417;19
48;S10;A;pre;1;59.995956269694275;[0.016746199980843812, 0.017239700013305992, 0.016061600006651133, 0.016952099977061152];78;5;0.05025339999701828;8.tif;mask.tiff;-0.14;right;['right'];0.1291029999847524;1;1.032;2.9960261000087485;88
49;S10;A;pre;1;59.995956269694275;[0.016764900006819516, 0.016727900016121566, 0.020737099985126406, 0.012744100007694215];53;2;0.05020910000894219;7.tif;mask.tiff;0.14;right;['right'];0.11662479996448383;1;0.776;2.7337270000134595;39
50;S10;A;pre;1;59.995956269694275;[0.016954799997620285, 0.016776699980255216, 0.016548399988096207, 0.01667410001391545];16;3;0.04999919998226687;2.tif;mask.tiff;-0.14;left;['left'];0.14635659998748451;1;2.969;4.9459139999817125;50
51;S10;A;pre;1;59.995956269694275;[0.017095099959988147, 0.01632729999255389, 0.017086700012441725, 0.016471399983856827];86;4;0.04988539998885244;blank.tiff;mask.tiff;-0.14;a;['left'];0.26680470001883805;0;1.086;3.184130000008736;64
52;S10;A;pre;1;59.995956269694275;[0.016659600019920617, 0.01646519999485463, 0.017055100004654378, 0.016750700015109032];93;2;0.05027100001461804;blank.tiff;mask.tiff;0.14;a;['right'];0.11300620000110939;0;0.789;2.7460556000005454;33
53;S10;A;pre;1;59.995956269694275;[0.01632310001878068, 0.01641909999307245, 0.016407699964474887, 0.01948610000545159];38;5;0.05231289996299893;8.tif;mask.tiff;-0.14;right;['right'];0.46811160002835095;1;0.833;3.1345501000178047;88
54;S10;A;pre;1;59.995956269694275;[0.017106100043747574, 0.016310599981807172, 0.016883399977814406, 0.016356400039512664];28;4;0.04955039999913424;7.tif;mask.tiff;-0.14;right;['right'];0.5177132000098936;1;1.253;3.601304900017567;70
55;S10;A;pre;1;59.995956269694275;[0.016901700000744313, 0.016745800036005676, 0.016622899973299354, 0.0168102000025101];67;4;0.05017890001181513;3.tif;mask.tiff;0.14;left;['left'];0.562925600039307;0;1.006;3.41315629996825;69
56;S10;A;pre;1;59.995956269694275;[0.013812799996230751, 0.015839200001209974, 0.01681200001621619, 0.016881800023838878];84;3;0.04953300004126504;blank.tiff;mask.tiff;-0.14;a;['left'];0.2529109000461176;0;0.783;2.869139600021299;48
57;S10;A;pre;1;59.995956269694275;[0.016631600039545447, 0.016466100001707673, 0.017160699993837625, 0.01588869997067377];36;5;0.04951549996621907;7.tif;mask.tiff;-0.14;right;['right'];0.5265054000192322;1;0.919;3.2932138000032865;86
58;S10;A;pre;1;59.995956269694275;[0.016575600020587444, 0.016784199979156256, 0.016750700015109032, 0.016602099989540875];45;1;0.05013699998380616;7.tif;mask.tiff;0.14;right;['right'];0.3997399000218138;1;2.659;4.899519499973394;23
59;S10;A;pre;1;59.995956269694275;[0.01665160001721233, 0.016687800001818687, 0.016648399992845953, 0.016534299997147173];24;4;0.04987049999181181;2.tif;mask.tiff;-0.14;left;['left'];0.2696474000113085;0;1.081;3.1860460999887437;66
60;S10;A;pre;1;59.995956269694275;[0.017293599958065897, 0.016179600032046437, 0.01654370001051575, 0.017031799943652004];47;1;0.04975509998621419;8.tif;mask.tiff;0.14;right;['right'];0.19783050002297387;0;0.882;2.9316758000059053;25
61;S10;A;pre;1;59.995956269694275;[0.015583400032483041, 0.0173376000020653, 0.016551300010178238, 0.016295799985527992];77;5;0.05018469999777153;7.tif;mask.tiff;0.14;right;['right'];0.5956950999679975;1;0.855;3.2795638000243343;87
62;S10;A;pre;1;59.995956269694275;[0.016616499982774258, 0.01682530000107363, 0.017123400000855327, 0.016209299967158586];26;4;0.05015799996908754;3.tif;mask.tiff;-0.14;left;['left'];0.19368079997366294;0;1.118;3.1441785999923013;68
63;S10;A;pre;1;59.995956269694275;[0.01664429996162653, 0.01661620003869757, 0.01676859997678548, 0.016186100023332983];15;2;0.049570900038816035;8.tif;mask.tiff;0.14;right;['left'];0.19850210001459345;0;0.878;2.914681099995505;41
64;S10;A;pre;1;59.995956269694275;[0.01612579997163266, 0.016618599998764694, 0.017005400033667684, 0.016437399957794696];69;4;0.05006139999022707;7.tif;mask.tiff;0.14;right;['right'];0.5270564000238664;1;0.796;3.160383799986448;71
65;S10;A;pre;1;59.995956269694275;[0.016391599958296865, 0.016861400043126196, 0.016168400004971772, 0.016974999976810068];19;3;0.050004800024908036;3.tif;mask.tiff;0.14;left;['left'];0.5061182999634184;0;0.833;3.1894093000446446;53
66;S10;A;pre;1;59.995956269694275;[0.016529400018043816, 0.017133700021076947, 0.01581729995086789, 0.016716500045731664];30;4;0.0496675000176765;8.tif;mask.tiff;-0.14;right;['right'];0.25473410001723096;0;0.815;2.9044402000145055;72
67;S10;A;pre;1;59.995956269694275;[0.01691100001335144, 0.017036000033840537, 0.016336699947714806, 0.016562300035730004];31;4;0.04993500001728535;8.tif;mask.tiff;0.14;right;['right'];0.21872890001395717;1;0.897;2.952033900015522;73
68;S10;A;pre;1;59.995956269694275;[0.009698100038804114, 0.016760899976361543, 0.0164560999837704, 0.017274600046221167];34;5;0.05049160000635311;3.tif;mask.tiff;-0.14;left;['right'];0.12472650001291186;0;0.73;2.785378100001253;84
69;S10;A;pre;1;59.995956269694275;[0.015387499995995313, 0.0164132000063546, 0.01684450003085658, 0.01669610000681132];58;3;0.0499538000440225;3.tif;mask.tiff;-0.14;left;['right'];0.21778020000783727;0;1.05;3.10103960003471;52
70;S10;A;pre;1;59.995956269694275;[0.016588800004683435, 0.016710199997760355, 0.016288299986626953, 0.01671820000046864];14;2;0.04971669998485595;8.tif;mask.tiff;-0.14;right;['right'];0.3779428999987431;1;1.015;3.227513599966187;40
71;S10;A;pre;1;59.995956269694275;[0.014963100024033338, 0.016652499965857714, 0.016345400013960898, 0.016823199985083193];50;2;0.049821099964901805;3.tif;mask.tiff;-0.14;left;['left'];0.09756400005426258;1;0.978;2.915771899977699;36
72;S10;A;pre;1;59.995956269694275;[0.017061299993656576, 0.016240299970377237, 0.01715860003605485, 0.016315799963194877];5;1;0.04971469996962696;7.tif;mask.tiff;0.14;right;['right'];0.13680800003930926;1;0.967;2.9532944000093266;23
73;S10;A;pre;1;59.995956269694275;[0.016464499989524484, 0.016624099982436746, 0.01706089999061078, 0.016483400017023087];62;3;0.05016839999007061;8.tif;mask.tiff;-0.14;right;['right'];0.15643229999113828;1;0.758;2.757580399978906;56
74;S10;A;pre;1;59.995956269694275;[0.016400300024542958, 0.01703519996954128, 0.016581000003498048, 0.016619500005617738];6;1;0.05023569997865707;8.tif;mask.tiff;-0.14;right;['right'];0.09714659996097907;1;0.8;2.7312791000003926;24
75;S10;A;pre;1;59.995956269694275;[0.016256899980362505, 0.016478699981234968, 0.016409600037150085, 0.016938399989157915];79;5;0.04982670000754297;8.tif;mask.tiff;0.14;right;['right'];0.07335659995442256;1;0.88;2.790554700011853;89
76;S10;A;pre;1;59.995956269694275;[0.017541699984576553, 0.01639699999941513, 0.017261800006963313, 0.01617910002823919];29;4;0.04983790003461763;7.tif;mask.tiff;0.14;right;['right'];0.09703449998050928;1;1.156;3.097354900033679;71
77;S10;A;pre;1;59.995956269694275;[0.006199499999638647, 0.016672199999447912, 0.016910400008782744, 0.016960700042545795];7;1;0.05054330005077645;8.tif;mask.tiff;0.14;right;['right'];0.10586010001134127;1;1.241;3.2308109999867156;25
78;S10;A;pre;1;59.995956269694275;[0.0162519000004977, 0.017033100011758506, 0.016503899998497218, 0.016336500004399568];2;1;0.04987350001465529;3.tif;mask.tiff;-0.14;left;['left'];0.2883225999539718;1;0.941;3.071513100003358;20
79;S10;A;pre;1;59.995956269694275;[0.016588600003160536, 0.01663119997829199, 0.016622900031507015, 0.017366199987009168];97;4;0.05062029999680817;blank.tiff;mask.tiff;0.14;a;['right'];0.272316700022202;0;0.945;3.0557530999649316;65
80;S10;A;pre;1;59.995956269694275;[0.01698200003011152, 0.016728100017644465, 0.016927899967413396, 0.016609099984634668];11;2;0.05026509996969253;3.tif;mask.tiff;0.14;left;['left'];0.5608343000058085;1;1.524;3.927557999966666;37
81;S10;A;pre;1;59.995956269694275;[0.026499599975068122, 0.005760800035204738, 0.017219799978192896, 0.01634830003604293];39;5;0.03932890004944056;8.tif;mask.tiff;0.14;right;['right'];0.5891550999949686;0;0.956;3.3882729000179097;89
82;S10;A;pre;1;59.995956269694275;[0.016344800009392202, 0.0170085999998264, 0.016437399957794696, 0.01656320004258305];95;3;0.050009200000204146;blank.tiff;mask.tiff;0.14;a;['right'];0.31377780000912026;0;0.752;2.9123107999912463;49
83;S10;A;pre;1;59.995956269694275;[0.016421199950855225, 0.016816600051242858, 0.01619949995074421, 0.016643900016788393];61;3;0.04966000001877546;7.tif;mask.tiff;0.14;right;['right'];0.6152754999930039;1;0.733;3.181376900000032;55
84;S10;A;pre;1;59.995956269694275;[0.015308599977288395, 0.01693019998492673, 0.016145700006745756, 0.016650900011882186];90;1;0.04972680000355467;blank.tiff;mask.tiff;-0.14;a;['right'];0.36430549999931827;0;0.649;2.84769269998651;16
85;S10;A;pre;1;59.995956269694275;[0.01647420000517741, 0.01667270000325516, 0.016704800014849752, 0.01683390000835061];42;1;0.05021140002645552;3.tif;mask.tiff;-0.14;left;['left'];1.0416876000235789;0;17.702;20.5913722999976;20
86;S10;A;pre;1;59.995956269694275;[0.015695600013714284, 0.01693939999677241, 0.017303299973718822, 0.01604419999057427];52;2;0.0502868999610655;7.tif;mask.tiff;-0.14;right;['right'];0.6572270000469871;1;0.928;3.457709899987094;38
87;S10;A;pre;1;59.995956269694275;[0.017084799997974187, 0.016535900009330362, 0.01707870000973344, 0.01614050002535805];71;4;0.04975510004442185;8.tif;mask.tiff;0.14;right;['right'];0.037574400019366294;0;0.693;2.5710265999659896;73
88;S10;A;pre;1;59.995956269694275;[0.016864199948031455, 0.01692870003171265, 0.016341699985787272, 0.016409599978942424];91;1;0.04967999999644235;blank.tiff;mask.tiff;0.14;a;['right'];0.781683899986092;0;0.989;3.6149505999637768;17
89;S10;A;pre;1;59.995956269694275;[0.016444699955172837, 0.016818000003695488, 0.01668600004632026, 0.016741300001740456];83;2;0.0502453000517562;blank.tiff;mask.tiff;0.14;a;['right'];0.23658089997479692;0;1.225;3.303659899975173;33
90;S10;A;pre;1;59.995956269694275;[0.01145559997530654, 0.016500100027769804, 0.017016600002534688, 0.016550200001802295];13;2;0.05006690003210679;7.tif;mask.tiff;0.14;right;['right'];0.2007173000019975;1;0.874;2.9176046999637038;39
91;S10;A;pre;1;59.995956269694275;[0.017141900025308132, 0.016546899976674467, 0.016194600029848516, 0.016967799980193377];94;3;0.04970929998671636;blank.tiff;mask.tiff;-0.14;a;['right'];0.2722931000171229;0;1.226;3.3387824000092223;48
92;S10;A;pre;1;59.995956269694275;[0.01665790000697598, 0.016757499950472265, 0.017520299996249378, 0.015983200049959123];74;5;0.050260999996680766;3.tif;mask.tiff;-0.14;left;['left'];0.6642807999742217;1;2.59;5.097409499983769;84
93;S10;A;pre;1;59.995956269694275;[0.016779600002337247, 0.016662600042764097, 0.016828699968755245, 0.017061799997463822];81;1;0.050553100008983165;blank.tiff;mask.tiff;0.14;a;['right'];0.08004339999752119;0;0.679;2.6130706000258215;17
94;S10;A;pre;1;59.995956269694275;[0.014863200020045042, 0.01672409998718649, 0.016120999993290752, 0.016871900006663054];99;5;0.0497169999871403;blank.tiff;mask.tiff;0.14;a;['right'];0.0751089999685064;0;0.644;2.558678300003521;81
95;S10;A;pre;1;59.995956269694275;[0.017915199976414442, 0.016247000021394342, 0.016301499970722944, 0.016867400030605495];82;2;0.04941590002272278;blank.tiff;mask.tiff;-0.14;a;['right'];0.25939720001770183;0;0.723;2.826132200018037;32
96;S10;A;pre;1;59.995956269694275;[0.016803300008177757, 0.016412700002547354, 0.01677629997720942, 0.01667550002457574];89;5;0.04986450000433251;blank.tiff;mask.tiff;0.14;a;['right'];5.140885700006038;0;2.921;9.90807569999015;81
97;S10;A;pre;1;59.995956269694275;[0.017201799957547337, 0.018614300002809614, 0.015385600039735436, 0.015910499962046742];96;4;0.04991040000459179;blank.tiff;mask.tiff;-0.14;a;['right'];0.07842750003328547;0;0.828;2.744934700021986;64
98;S10;A;pre;1;59.995956269694275;[0.016262600023765117, 0.017699600022751838, 0.01620559999719262, 0.015967499988619238];44;1;0.0498727000085637;7.tif;mask.tiff;-0.14;right;['right'];0.10566569998627529;1;0.912;2.855588400037959;22
99;S10;A;pre;1;59.995956269694275;[0.01614960003644228, 0.016404699999839067, 0.01695709995692596, 0.016729500028304756];20;3;0.05009129998506978;7.tif;mask.tiff;-0.14;right;['right'];0.08187080000061542;1;1.055;2.9815529999905266;54
100;S10;A;pre;2;59.995956269694275;[0.017279600026085973, 0.016871300002094358, 0.01594479999039322, 0.016958999971393496];79;5;0.049775099963881075;8.tif;mask.tiff;0.14;right;['right'];0.2098757999483496;1;0.725;2.7765110000036657;89
101;S10;A;pre;2;59.995956269694275;[0.01676870003575459, 0.0169328999472782, 0.015882400039117783, 0.01733459997922182];28;4;0.050149899965617806;7.tif;mask.tiff;-0.14;right;['right'];0.35743799997726455;1;0.7;2.907062899961602;70
102;S10;A;pre;2;59.995956269694275;[0.016645600029733032, 0.01719839998986572, 0.016528400010429323, 0.016081999987363815];88;5;0.04980879998765886;blank.tiff;mask.tiff;-0.14;a;['right'];0.38354139996226877;0;1.029;3.2495276000117883;80
103;S10;A;pre;2;59.995956269694275;[0.016013599990401417, 0.01676109997788444, 0.01684280001791194, 0.016765100008342415];81;1;0.0503690000041388;blank.tiff;mask.tiff;0.14;a;['right'];0.3582907000090927;0;1.215;3.424895000003744;17
104;S10;A;pre;2;59.995956269694275;[0.016606499964836985, 0.016334199986886233, 0.01687730004778132, 0.016867199970874935];96;4;0.05007870000554249;blank.tiff;mask.tiff;-0.14;a;['right'];0.499434299999848;0;1.512;3.8660567000042647;64
105;S10;A;pre;2;59.995956269694275;[0.0170321999466978, 0.0163390000234358, 0.017355100018903613, 0.016076300002168864];72;5;0.04977040004450828;2.tif;mask.tiff;-0.14;left;['right'];0.22958179999841377;0;1.013;3.079916500020772;82
106;S10;A;pre;2;59.995956269694275;[0.01672569999936968, 0.017664699989836663, 0.01570200000423938, 0.016597499954514205];85;3;0.04996419994859025;blank.tiff;mask.tiff;0.14;a;['right'];0.14855349995195866;0;1.008;2.998303600004874;49
107;S10;A;pre;2;59.995956269694275;[0.0166620000381954, 0.01670069998363033, 0.017172500025480986, 0.01635999995050952];54;2;0.05023319995962083;8.tif;mask.tiff;-0.14;right;['right'];1.0422796999919228;1;0.891;4.8086815000278875;40
108;S10;A;pre;2;59.995956269694275;[0.016549899999517947, 0.016276200010906905, 0.01663229998666793, 0.01675529999192804];82;2;0.04966379998950288;blank.tiff;mask.tiff;-0.14;a;['right'];0.6799382999888621;0;0.838;3.3633225000230595;32
109;S10;A;pre;2;59.995956269694275;[0.016629900026600808, 0.016271299973595887, 0.016743300016969442, 0.017161700001452118];40;1;0.05017629999201745;2.tif;mask.tiff;-0.14;left;['left'];0.136437900015153;1;0.889;2.886845800036099;18
110;S10;A;pre;2;59.995956269694275;[0.016336500004399568, 0.01663269998971373, 0.01681920001283288, 0.016319399990607053];65;4;0.04977129999315366;2.tif;mask.tiff;0.14;left;['right'];0.11776629998348653;0;0.879;2.844156799954362;67
111;S10;A;pre;2;59.995956269694275;[0.016484899970237166, 0.016718099999707192, 0.01667829998768866, 0.016542400000616908];46;1;0.04993879998801276;8.tif;mask.tiff;-0.14;right;['right'];0.0984656999935396;0;0.843;2.7815704999957234;24
112;S10;A;pre;2;59.995956269694275;[0.016809699998702854, 0.016760299971792847, 0.0167049000156112, 0.016393600031733513];39;5;0.04985880001913756;8.tif;mask.tiff;0.14;right;['right'];0.7042231999803334;0;1.37;3.9202603999874555;89
113;S10;A;pre;2;59.995956269694275;[0.01710220001405105, 0.016664399998262525, 0.01612139999633655, 0.016509200038854033];27;4;0.04929500003345311;3.tif;mask.tiff;0.14;left;['right'];0.15454469999531284;0;0.855;2.8542851000092924;69
114;S10;A;pre;2;59.995956269694275;[0.016342899994924664, 0.016639499983284622, 0.016636600019410253, 0.016545599966775626];38;5;0.0498216999694705;8.tif;mask.tiff;-0.14;right;['right'];0.05628269998123869;0;0.68;2.572701600030996;88
115;S10;A;pre;2;59.995956269694275;[0.01660269999410957, 0.016618700057733804, 0.01632739999331534, 0.017024600005242974];8;2;0.04997070005629212;2.tif;mask.tiff;-0.14;left;['left'];0.1401400999748148;1;5.077;7.055757199996151;34
116;S10;A;pre;2;59.995956269694275;[0.012805199949070811, 0.01640270004281774, 0.017209399957209826, 0.017173700034618378];97;4;0.050785800034645945;blank.tiff;mask.tiff;0.14;a;['right'];0.36830919998465106;0;0.764;2.967981299967505;65
117;S10;A;pre;2;59.995956269694275;[0.017382499994710088, 0.01646070001879707, 0.01649920002091676, 0.01662369997939095];42;1;0.04958360001910478;3.tif;mask.tiff;-0.14;left;['right'];0.38148819998605177;0;0.913;3.132195199956186;20
118;S10;A;pre;2;59.995956269694275;[0.016176800010725856, 0.017019900027662516, 0.016514399962034076, 0.016587199992500246];78;5;0.05012149998219684;8.tif;mask.tiff;-0.14;right;['right'];0.6458469000062905;1;1.029;3.5116867999895476;88
119;S10;A;pre;2;59.995956269694275;[0.016366900003049523, 0.016765600012149662, 0.017286499962210655, 0.0162772000185214];31;4;0.050329299992881715;8.tif;mask.tiff;0.14;right;['right'];0.570653599977959;1;0.835;3.254236500011757;73
120;S10;A;pre;2;59.995956269694275;[0.01599849999183789, 0.01664119999622926, 0.01632409996818751, 0.017067600041627884];86;4;0.050032900006044656;blank.tiff;mask.tiff;-0.14;a;['right'];0.3690566999721341;0;0.863;3.085572400013916;64
121;S10;A;pre;2;59.995956269694275;[0.016248400032054633, 0.016590200015343726, 0.016132299962919205, 0.01702800003113225];17;3;0.04975050000939518;2.tif;mask.tiff;0.14;left;['left'];0.14877609995892271;1;1.349;3.348147400014568;51
122;S10;A;pre;2;59.995956269694275;[0.016958800028078258, 0.01634189998731017, 0.016977399995084852, 0.01716129999840632];89;5;0.050480599980801344;blank.tiff;mask.tiff;0.14;a;['right'];0.13249190000351518;0;0.873;2.848606000014115;81
123;S10;A;pre;2;59.995956269694275;[0.01647100003901869, 0.01707850000821054, 0.016290799947455525, 0.016893699998036027];34;5;0.05026299995370209;3.tif;mask.tiff;-0.14;left;['left'];4.344681699993089;1;1.173;7.3609401999856345;84
124;S10;A;pre;2;59.995956269694275;[0.016646899981424212, 0.017064000014215708, 0.016298300004564226, 0.016604900010861456];98;5;0.04996720002964139;blank.tiff;mask.tiff;-0.14;a;['right'];0.4865455999970436;0;8.923;11.25335479999194;80
125;S10;A;pre;2;59.995956269694275;[0.01635250000981614, 0.01624860003357753, 0.017312199983280152, 0.016533599991817027];67;4;0.05009440000867471;3.tif;mask.tiff;0.14;left;['right'];0.396726300008595;0;1.382;3.6146823999588378;69
126;S10;A;pre;2;59.995956269694275;[0.016269899962935597, 0.016698100022040308, 0.01669010001933202, 0.01687529997434467];29;4;0.050263500015717;7.tif;mask.tiff;0.14;right;['right'];0.4827285999781452;1;0.977;3.965714299993124;71
127;S10;A;pre;2;59.995956269694275;[0.016457200050354004, 0.016964799957349896, 0.01618080004118383, 0.016858399962075055];94;3;0.05000399996060878;blank.tiff;mask.tiff;-0.14;a;['left'];0.5046329000033438;0;1.177;3.521196899993811;48
128;S10;A;pre;2;59.995956269694275;[0.016603900003246963, 0.017262999957893044, 0.016391300014220178, 0.01636720000533387];14;2;0.05002149997744709;8.tif;mask.tiff;-0.14;right;['right'];0.7052235000301152;1;1.499;4.038433000037912;40
129;S10;A;pre;2;59.995956269694275;[0.016616799985058606, 0.016403599991463125, 0.01640269998461008, 0.017658800003118813];44;1;0.05046509997919202;7.tif;mask.tiff;-0.14;right;['right'];0.23376329999882728;1;0.927;3.000413700006902;22
130;S10;A;pre;2;59.995956269694275;[0.012113899982068688, 0.01674360001925379, 0.017179900023620576, 0.01662199996644631];47;1;0.050545500009320676;8.tif;mask.tiff;0.14;right;['right'];0.1368608000339009;1;0.994;2.96971009997651;25
131;S10;A;pre;2;59.995956269694275;[0.0164947000448592, 0.017092399997636676, 0.01679389999480918, 0.01648559997556731];60;3;0.05037189996801317;7.tif;mask.tiff;-0.14;right;['right'];0.12182490003760904;1;1.223;3.188863000017591;54
132;S10;A;pre;2;59.995956269694275;[0.014320799964480102, 0.016526299994438887, 0.016675000020768493, 0.01701050001429394];41;1;0.05021180002950132;2.tif;mask.tiff;0.14;left;['left'];0.13132800004677847;1;0.894;2.865318500029389;19
133;S10;A;pre;2;59.995956269694275;[0.016839099989738315, 0.016231900022830814, 0.01698980003129691, 0.016694999998435378];66;4;0.0499167000525631;3.tif;mask.tiff;-0.14;left;['right'];0.16754549997858703;0;1.135;3.151061500015203;68
134;S10;A;pre;2;59.995956269694275;[0.01627560000633821, 0.01671230001375079, 0.016723499982617795, 0.016723599983379245];53;2;0.05015939997974783;7.tif;mask.tiff;0.14;right;['right'];2.2356326999724843;1;0.927;5.019133499998134;39
135;S10;A;pre;2;59.995956269694275;[0.013137000030837953, 0.0164622999727726, 0.017085600004065782, 0.016361900023184717];0;1;0.0499098000000231;2.tif;mask.tiff;-0.14;left;['left'];0.08988179999869317;1;0.83;2.7565951999858953;18
136;S10;A;pre;2;59.995956269694275;[0.013825600035488605, 0.016516199975740165, 0.01698339998256415, 0.017083399987313896];93;2;0.05058299994561821;blank.tiff;mask.tiff;0.14;a;['right'];0.14828439999837428;0;0.847;2.8319205000298098;33
137;S10;A;pre;2;59.995956269694275;[0.01626509998459369, 0.016589100006967783, 0.016790399968158454, 0.016598900023382157];22;3;0.049978399998508394;8.tif;mask.tiff;-0.14;right;['right'];0.08378679997986183;1;0.964;2.8765020999708213;56
138;S10;A;pre;2;59.995956269694275;[0.016778299992438406, 0.016966500028502196, 0.016783099970780313, 0.016417899983935058];76;5;0.05016749998321757;7.tif;mask.tiff;-0.14;right;['right'];0.7867949000210501;1;1.083;3.703031799988821;86
139;S10;A;pre;2;59.995956269694275;[0.016877599991858006, 0.016458199999760836, 0.01637770002707839, 0.017216399952303618];13;2;0.050052299979142845;7.tif;mask.tiff;0.14;right;['right'];0.45069289999082685;1;1.016;3.300090899982024;39
140;S10;A;pre;2;59.995956269694275;[0.016785399988293648, 0.016948600008618087, 0.016345900017768145, 0.016361799964215606];83;2;0.04965629999060184;blank.tiff;mask.tiff;0.14;a;['left'];1.0980982999899425;0;0.961;3.8976300000213087;33
141;S10;A;pre;2;59.995956269694275;[0.01563839998561889, 0.016283300006762147, 0.016174199990928173, 0.01672010001493618];70;4;0.0491776000126265;8.tif;mask.tiff;-0.14;right;['right'];0.224314899998717;1;0.776;2.8418424000265077;72
142;S10;A;pre;2;59.995956269694275;[0.01658200001111254, 0.016454899974633008, 0.017221900052390993, 0.016314999957103282];48;2;0.04999179998412728;2.tif;mask.tiff;-0.14;left;['left'];0.982743400032632;1;0.826;3.649070399987977;34
143;S10;A;pre;2;59.995956269694275;[0.01710649998858571, 0.016862799995578825, 0.016401899978518486, 0.016628400015179068];32;5;0.04989309998927638;2.tif;mask.tiff;-0.14;left;['right'];0.19018650002544746;0;1.064;3.090130600030534;82
144;S10;A;pre;2;59.995956269694275;[0.016283900011330843, 0.01677039999049157, 0.016331400023773313, 0.016456499986816198];59;3;0.04955830000108108;3.tif;mask.tiff;0.14;left;['left'];1.238776299986057;1;1.017;4.088124000001699;53
145;S10;A;pre;2;59.995956269694275;[0.01393000001553446, 0.017144099983852357, 0.016715900041162968, 0.01618769997730851];33;5;0.050047700002323836;2.tif;mask.tiff;0.14;left;['right'];0.3076454999973066;0;0.894;3.040950700000394;83
146;S10;A;pre;2;59.995956269694275;[0.01423080003587529, 0.015989999985322356, 0.017409499967470765, 0.016003300028387457];4;1;0.04940279998118058;7.tif;mask.tiff;-0.14;right;['right'];0.23197939997771755;1;0.784;2.8484058000030927;22
147;S10;A;pre;2;59.995956269694275;[0.012635699997190386, 0.016427399998065084, 0.016550700005609542, 0.016876099980436265];91;1;0.04985419998411089;blank.tiff;mask.tiff;0.14;a;['left'];2.246414499997627;0;2.158;6.263119600014761;17
148;S10;A;pre;2;59.995956269694275;[0.01704999996582046, 0.016464499989524484, 0.016657100000884384, 0.017540500033646822];51;2;0.05066210002405569;3.tif;mask.tiff;0.14;left;['left'];0.3582651999895461;1;0.811;3.007666599994991;37
149;S10;A;pre;2;59.995956269694275;[0.01622500002849847, 0.016846499987877905, 0.016603399999439716, 0.01684160000877455];56;3;0.05029149999609217;2.tif;mask.tiff;-0.14;left;['left'];0.76704270002665;0;2.42;5.033426699985284;50
150;S10;A;pre;2;59.995956269694275;[0.01717510004527867, 0.016092099947854877, 0.016613800020422786, 0.016613600018899888];2;1;0.04931949998717755;3.tif;mask.tiff;-0.14;left;['left'];1.137868299963884;1;1.389;4.370507200015709;20
151;S10;A;pre;2;59.995956269694275;[0.014967600000090897, 0.017106999992392957, 0.016130600008182228, 0.01662779995240271];15;2;0.049865399952977896;8.tif;mask.tiff;0.14;right;['right'];0.2651829999522306;0;1.067;3.165031500044279;41
152;S10;A;pre;2;59.995956269694275;[0.016703300003428012, 0.016336600005161017, 0.01660289999563247, 0.016926300013437867];12;2;0.049865800014231354;7.tif;mask.tiff;-0.14;right;['right'];0.21236030000727624;1;1.259;3.3124969999771565;38
153;S10;A;pre;2;59.995956269694275;[0.016136699996422976, 0.016387100040446967, 0.016735199955292046, 0.01707580004585907];95;3;0.05019810004159808;blank.tiff;mask.tiff;0.14;a;['right'];0.286358300014399;0;1.384;3.5191150000318885;49
154;S10;A;pre;2;59.995956269694275;[0.017809199984185398, 0.016438800026662648, 0.015783199982251972, 0.01729749998776242];23;3;0.04951949999667704;8.tif;mask.tiff;0.14;right;['right'];0.6401284000021406;1;0.656;3.1402456000214443;57
155;S10;A;pre;2;59.995956269694275;[0.01288990001194179, 0.01623380003729835, 0.01648559997556731, 0.01692429999820888];45;1;0.04964370001107454;7.tif;mask.tiff;0.14;right;['right'];0.5402428000234067;1;0.854;3.2569210000219755;23
156;S10;A;pre;2;59.995956269694275;[0.016141400032211095, 0.01715229998808354, 0.016148199967574328, 0.016840700001921505];75;5;0.050141199957579374;3.tif;mask.tiff;0.14;left;['left'];0.21411679999437183;1;1.016;3.06379729998298;85
157;S10;A;pre;2;59.995956269694275;[0.017100299999583513, 0.016037399997003376, 0.01667079998878762, 0.01661790005164221];3;1;0.04932610003743321;3.tif;mask.tiff;0.14;left;['right'];0.12626529997214675;0;1.213;3.1757712999824435;21
158;S10;A;pre;2;59.995956269694275;[0.017060200043488294, 0.016108199954032898, 0.017069900000933558, 0.016439500031992793];18;3;0.04961759998695925;3.tif;mask.tiff;-0.14;left;['right'];0.14960250002332032;0;0.922;2.9160943999886513;52
159;S10;A;pre;2;59.995956269694275;[0.015874500037170947, 0.016831399989314377, 0.01735270000062883, 0.01597170002060011];26;4;0.05015580001054332;3.tif;mask.tiff;-0.14;left;['right'];0.12642819999018684;0;0.832;2.792535200016573;68
160;S10;A;pre;2;59.995956269694275;[0.008643299981486052, 0.01614050002535805, 0.016719300008844584, 0.017097999982070178];7;1;0.04995780001627281;8.tif;mask.tiff;0.14;right;['right'];0.21841059997677803;1;0.767;2.851625100011006;25
161;S10;A;pre;2;59.995956269694275;[0.013517000013962388, 0.0166742000146769, 0.0168785999994725, 0.016700999985914677];84;3;0.050253800000064075;blank.tiff;mask.tiff;-0.14;a;['right'];0.17631269997218624;0;0.831;2.8760126999695785;48
162;S10;A;pre;2;59.995956269694275;[0.016835200018249452, 0.0166857999865897, 0.01633790001505986, 0.017074899980798364];62;3;0.05009859998244792;8.tif;mask.tiff;-0.14;right;['right'];0.12137490004533902;0;1.002;2.954848600027617;56
163;S10;A;pre;2;59.995956269694275;[0.017354500014334917, 0.01604140002746135, 0.01650929998140782, 0.01704120001522824];61;3;0.04959190002409741;7.tif;mask.tiff;0.14;right;['right'];0.09441620000870898;1;1.009;2.9441314000287093;55
164;S10;A;pre;2;59.995956269694275;[0.016588900005444884, 0.01701339997816831, 0.01734990003751591, 0.015674299967940897];73;5;0.050037599983625114;2.tif;mask.tiff;0.14;left;['left'];0.07862480002222583;1;1.122;3.0451630000025034;83
165;S10;A;pre;2;59.995956269694275;[0.016633099992759526, 0.016758200014010072, 0.016573900007642806, 0.01707130001159385];74;5;0.050403400033246726;3.tif;mask.tiff;-0.14;left;['left'];0.780884200008586;0;1.15;3.764535900030751;84
166;S10;A;pre;2;59.995956269694275;[0.0165691000293009, 0.016984799993224442, 0.016430700023192912, 0.01682969997636974];68;4;0.05024519999278709;7.tif;mask.tiff;-0.14;right;['right'];0.08632510004099458;1;0.86;2.7854968999745324;70
167;S10;A;pre;2;59.995956269694275;[0.01692299998831004, 0.016283200006000698, 0.01709310000296682, 0.016664099995978177];50;2;0.050040400004945695;3.tif;mask.tiff;-0.14;left;['left'];0.4721171000273898;1;0.846;3.1548003999632783;36
168;S10;A;pre;2;59.995956269694275;[0.01614339998923242, 0.01686809997772798, 0.01617940003052354, 0.017219899978954345];30;4;0.05026739998720586;8.tif;mask.tiff;-0.14;right;['right'];1.338541700039059;1;0.884;4.055370799964294;72
169;S10;A;pre;2;59.995956269694275;[0.01629940001294017, 0.016733600001316518, 0.016720500017981976, 0.01722189999418333];19;3;0.050676000013481826;3.tif;mask.tiff;0.14;left;['left'];0.31665150000480935;0;1.192;3.35000850004144;53
170;S10;A;pre;2;59.995956269694275;[0.017814999970141798, 0.01694810000481084, 0.017235899984370917, 0.01595690002432093];64;4;0.05014090001350269;2.tif;mask.tiff;-0.14;left;['left'];0.3630245000240393;1;0.923;3.1796355000115;66
171;S10;A;pre;2;59.995956269694275;[0.017033700016327202, 0.016445099958218634, 0.017468900012318045, 0.016186200024094433];55;2;0.05010019999463111;8.tif;mask.tiff;0.14;right;['right'];0.34148699999786913;0;0.957;3.141006199992262;41
172;S10;A;pre;2;59.995956269694275;[0.010659100022166967, 0.01723110000602901, 0.016600599978119135, 0.016885499993804842];58;3;0.05071719997795299;3.tif;mask.tiff;-0.14;left;['left'];0.8296850000042468;1;20.873;23.535492900002282;52
173;S10;A;pre;2;59.995956269694275;[0.016999099985696375, 0.016847999999299645, 0.016781700018327683, 0.016403299989178777];21;3;0.050033000006806105;7.tif;mask.tiff;0.14;right;['left'];0.517093800008297;0;0.798;3.1670216000056826;55
174;S10;A;pre;2;59.995956269694275;[0.016937099979259074, 0.017099599994253367, 0.015985600010026246, 0.01690779998898506];16;3;0.049992999993264675;2.tif;mask.tiff;-0.14;left;['left'];0.5663638999685645;1;1.21;3.6169803000520915;50
175;S10;A;pre;2;59.995956269694275;[0.016951500030700117, 0.016238800017163157, 0.01656859996728599, 0.016883900039829314];24;4;0.04969130002427846;2.tif;mask.tiff;-0.14;left;['left'];0.3137693000026047;1;1.0;3.146619600011036;66
176;S10;A;pre;2;59.995956269694275;[0.01675089995842427, 0.016907399985939264, 0.01630980003392324, 0.01698959997156635];10;2;0.05020679999142885;3.tif;mask.tiff;-0.14;left;['left'];0.20877650001784787;1;0.934;2.974762399971951;36
177;S10;A;pre;2;59.995956269694275;[0.016668500029481947, 0.01657320000231266, 0.016346099961083382, 0.017021900042891502];52;2;0.049941200006287545;7.tif;mask.tiff;-0.14;right;['right'];0.16458520002197474;1;0.704;2.714476299996022;38
178;S10;A;pre;2;59.995956269694275;[0.01652129995636642, 0.01669200003379956, 0.016995000012684613, 0.016485299973282963];49;2;0.050172300019767135;2.tif;mask.tiff;0.14;left;['left'];0.29983329999959096;1;0.848;2.982638699992094;35
179;S10;A;pre;2;59.995956269694275;[0.017267900053411722, 0.016618099994957447, 0.016345399955753237, 0.016840900003444403];5;1;0.04980439995415509;7.tif;mask.tiff;0.14;right;['right'];0.10149859997909516;1;0.732;2.6687500000116415;23
180;S10;A;pre;2;59.995956269694275;[0.016359300003387034, 0.016864000004716218, 0.016994699952192605, 0.016586300043854862];25;4;0.050445000000763685;2.tif;mask.tiff;0.14;left;['left'];0.17537799995625392;1;0.822;2.841982099984307;67
181;S10;A;pre;2;59.995956269694275;[0.016358099994249642, 0.01661940000485629, 0.0170947999577038, 0.016558800009079278];87;4;0.050272999971639365;blank.tiff;mask.tiff;0.14;a;['left'];0.33567800000309944;0;1.038;3.2187515000114217;65
182;S10;A;pre;2;59.995956269694275;[0.016388799995183945, 0.01723419997142628, 0.016017400019336492, 0.017225500021595508];71;4;0.05047710001235828;8.tif;mask.tiff;0.14;right;['right'];0.17175249999854714;1;0.742;2.7553040999919176;73
183;S10;A;pre;2;59.995956269694275;[0.016694099991582334, 0.016523899976164103, 0.01746360003016889, 0.01623989996733144];11;2;0.05022739997366443;3.tif;mask.tiff;0.14;left;['right'];0.09505339997122064;0;0.791;2.727924900013022;37
184;S10;A;pre;2;59.995956269694275;[0.013014699972700328, 0.016250799992121756, 0.017095600022003055, 0.01664129999699071];69;4;0.04998770001111552;7.tif;mask.tiff;0.14;right;['right'];0.17533299996284768;1;0.89;2.908188399975188;71
185;S10;A;pre;2;59.995956269694275;[0.016694299993105233, 0.016470200032927096, 0.016536700015421957, 0.016706799971871078];20;3;0.04971370002022013;7.tif;mask.tiff;-0.14;right;['right'];0.22802999999839813;1;0.72;2.7947584000066854;54
186;S10;A;pre;2;59.995956269694275;[0.017044999985955656, 0.016361800022423267, 0.016284899960737675, 0.016889600025024265];36;5;0.04953630000818521;7.tif;mask.tiff;-0.14;right;['right'];4.681631400017068;1;0.855;7.3808498999569565;86
187;S10;A;pre;2;59.995956269694275;[0.016553599969483912, 0.01648900000145659, 0.016415700025390834, 0.017228899989277124];63;3;0.050133600016124547;8.tif;mask.tiff;0.14;right;['right'];0.13260680000530556;1;0.653;2.6166647999780253;57
188;S10;A;pre;2;59.995956269694275;[0.01653169997734949, 0.016850000014528632, 0.01623549999203533, 0.016813600028399378];90;1;0.04989910003496334;blank.tiff;mask.tiff;-0.14;a;['right'];0.04257590003544465;0;0.726;2.6091810999787413;16
189;S10;A;pre;2;59.995956269694275;[0.01682640000944957, 0.016736700024921447, 0.01934539998183027, 0.013582699990365654];43;1;0.04966479999711737;3.tif;mask.tiff;0.14;left;['left'];0.07865639997180551;1;0.656;2.579046000028029;21
190;S10;A;pre;2;59.995956269694275;[0.008632100012619048, 0.016870199993718415, 0.016646199976094067, 0.01680600002873689];6;1;0.05032239999854937;8.tif;mask.tiff;-0.14;right;['right'];0.33066420000977814;0;0.663;2.8370344000286423;24
191;S10;A;pre;2;59.995956269694275;[0.016843200020957738, 0.016458199999760836, 0.016872200008947402, 0.016676599974744022];80;1;0.05000699998345226;blank.tiff;mask.tiff;-0.14;a;['right'];0.021161100012250245;0;0.797;2.654001099988818;16
192;S10;A;pre;2;59.995956269694275;[0.016385599970817566, 0.016791500034742057, 0.016748900001402944, 0.016579799994360656];37;5;0.05012020003050566;7.tif;mask.tiff;0.14;right;['right'];0.041915400011930615;1;0.662;2.541706799995154;87
193;S10;A;pre;2;59.995956269694275;[0.01658519997727126, 0.01697920000879094, 0.016886900004465133, 0.016285999969113618];57;3;0.05015209998236969;2.tif;mask.tiff;0.14;left;['left'];0.17605429998366162;1;0.822;2.8427369999699295;51
194;S10;A;pre;2;59.995956269694275;[0.01701050001429394, 0.016969199990853667, 0.016167599998880178, 0.019496699969749898];99;5;0.05263349995948374;blank.tiff;mask.tiff;0.14;a;['right'];0.040457300026901066;0;0.633;2.507301900011953;81
195;S10;A;pre;2;59.995956269694275;[0.013849599985405803, 0.017070500005502254, 0.016649500001221895, 0.016113399993628263];1;1;0.04983340000035241;2.tif;mask.tiff;0.14;left;['right'];0.0017951000481843948;0;1.137;2.9854945999686606;19
196;S10;A;pre;2;59.995956269694275;[0.015929399989545345, 0.016799399978481233, 0.01677630003541708, 0.016705799964256585];9;2;0.0502814999781549;2.tif;mask.tiff;0.14;left;['right'];0.0915462999837473;1;0.953;2.891376700019464;35
197;S10;A;pre;2;59.995956269694275;[0.016347399970982224, 0.016698000021278858, 0.017245199996978045, 0.016673000005539507];92;2;0.05061620002379641;blank.tiff;mask.tiff;-0.14;a;['right'];0.0941910000401549;0;1.245;3.1773097999976017;32
198;S10;A;pre;2;59.995956269694275;[0.016713400022126734, 0.017025400011334568, 0.01611979998415336, 0.016833000001497567];35;5;0.049978199996985495;3.tif;mask.tiff;0.14;left;['left'];0.12217549997149035;1;1.033;2.9880184999783523;85
199;S10;A;pre;2;59.995956269694275;[0.004971699963789433, 0.01616600004490465, 0.01669329998549074, 0.01708149997284636];77;5;0.04994080000324175;7.tif;mask.tiff;0.14;right;['right'];0.13781709998147562;1;0.906;2.904753999959212;87
200;S10;A;pre;3;59.995956269694275;[0.016849600011482835, 0.01638799998909235, 0.016981700027827173, 0.016314199951011688];78;5;0.04968389996793121;8.tif;mask.tiff;-0.14;right;['right'];1.1135090999887325;1;0.861;3.813314899976831;88
201;S10;A;pre;3;59.995956269694275;[0.01615250000031665, 0.016712000011466444, 0.016813800029922277, 0.01663999998709187];27;4;0.05016580002848059;3.tif;mask.tiff;0.14;left;['right'];0.3572795999934897;0;0.765;2.9577751999604516;69
202;S10;A;pre;3;59.995956269694275;[0.01694050000514835, 0.01667710003675893, 0.01701919996412471, 0.01611090003279969];62;3;0.04980720003368333;8.tif;mask.tiff;-0.14;right;['right'];0.48036889999639243;1;0.757;3.0813555999775417;56
203;S10;A;pre;3;59.995956269694275;[0.016795899951830506, 0.016648500051815063, 0.01687829999718815, 0.016679499996826053];88;5;0.050206300045829266;blank.tiff;mask.tiff;-0.14;a;['right'];0.14872619998641312;0;1.253;3.831745699979365;80
204;S10;A;pre;3;59.995956269694275;[0.016706000023987144, 0.016491999966092408, 0.016534199996385723, 0.01724020001711324];5;1;0.05026639997959137;7.tif;mask.tiff;0.14;right;['right'];0.09539139998378232;1;0.99;2.9280683000106364;23
205;S10;A;pre;3;59.995956269694275;[0.016991599986795336, 0.017178100009914488, 0.015812299971003085, 0.016703100001905113];40;1;0.049693499982822686;2.tif;mask.tiff;-0.14;left;['left'];0.09972439997363836;1;0.809;2.749408600036986;18
206;S10;A;pre;3;59.995956269694275;[0.016773399955127388, 0.016550000000279397, 0.027101200015749782, 0.006122899998445064];99;5;0.04977410001447424;blank.tiff;mask.tiff;0.14;a;['left'];0.0951523999683559;0;0.849;2.777457599993795;81
207;S10;A;pre;3;59.995956269694275;[0.01624440000159666, 0.01686500001233071, 0.0163627999718301, 0.017076599993743002];20;3;0.05030439997790381;7.tif;mask.tiff;-0.14;right;['right'];0.3284372000489384;1;1.054;3.2279263000236824;54
208;S10;A;pre;3;59.995956269694275;[0.01667989999987185, 0.016402399982325733, 0.01684580004075542, 0.01717899995855987];92;2;0.050427199981641024;blank.tiff;mask.tiff;-0.14;a;['left'];0.7780778000014834;0;1.399;4.010878500004765;32
209;S10;A;pre;3;59.995956269694275;[0.016742700012400746, 0.01639089995296672, 0.016759600024670362, 0.01622779999161139];11;2;0.049378299969248474;3.tif;mask.tiff;0.14;left;['left'];0.1465328999911435;0;0.713;2.6968663000152446;37
210;S10;A;pre;3;59.995956269694275;[0.016812100016977638, 0.01686079998034984, 0.01657500001601875, 0.017525499977637082];72;5;0.05096129997400567;2.tif;mask.tiff;-0.14;left;['left'];0.16503289999673143;1;0.779;2.781724200001918;82
211;S10;A;pre;3;59.995956269694275;[0.016649199998937547, 0.01675389998126775, 0.01655850000679493, 0.016693000041414052];18;3;0.05000540002947673;3.tif;mask.tiff;-0.14;left;['left'];0.1043041999801062;0;0.963;2.904387200018391;52
212;S10;A;pre;3;59.995956269694275;[0.01669479999691248, 0.016389099997468293, 0.01672720001079142, 0.017108800006099045];23;3;0.05022510001435876;8.tif;mask.tiff;0.14;right;['right'];0.45630909997271374;1;0.729;3.0226021999842487;57
213;S10;A;pre;3;59.995956269694275;[0.016692300036083907, 0.017097099975217134, 0.016268300008960068, 0.016829199972562492];21;3;0.050194599956739694;7.tif;mask.tiff;0.14;right;['right'];0.3204014000366442;1;0.965;3.119901400001254;55
214;S10;A;pre;3;59.995956269694275;[0.017120800039265305, 0.016451400006189942, 0.016403899993747473, 0.027367500006221235];49;2;0.06022280000615865;2.tif;mask.tiff;0.14;left;['left'];0.19951110001420602;0;1.147;3.1826670999871567;35
215;S10;A;pre;3;59.995956269694275;[0.016065999981947243, 0.016944700037129223, 0.017110099957790226, 0.01596290001180023];31;4;0.05001770000671968;8.tif;mask.tiff;0.14;right;['right'];0.14099289994919673;1;0.846;2.8243174999952316;73
216;S10;A;pre;3;59.995956269694275;[0.016997899976558983, 0.016716000041924417, 0.016118799976538867, 0.016923399991355836];60;3;0.04975820000981912;7.tif;mask.tiff;-0.14;right;['right'];0.29446880001341924;1;0.84;2.9942924000206403;54
217;S10;A;pre;3;59.995956269694275;[0.016596400004345924, 0.016769899986684322, 0.019891400006599724, 0.013236299972049892];48;2;0.04989759996533394;2.tif;mask.tiff;-0.14;left;['left'];0.07948910002596676;1;0.656;2.5796777000068687;34
218;S10;A;pre;3;59.995956269694275;[0.016349899990018457, 0.01672870002221316, 0.01725480001186952, 0.0160339999711141];94;3;0.05001750000519678;blank.tiff;mask.tiff;-0.14;a;['left'];0.05716470000334084;0;0.944;2.8407407000195235;48
219;S10;A;pre;3;59.995956269694275;[0.007104800024535507, 0.016867399972397834, 0.016370599973015487, 0.01654490001965314];7;1;0.04978289996506646;8.tif;mask.tiff;0.14;right;['left'];0.06374930002493784;0;0.708;2.6476173999835737;25
220;S10;A;pre;3;59.995956269694275;[0.017101299948990345, 0.016153200005646795, 0.016962499998044223, 0.01634660002309829];86;4;0.04946230002678931;blank.tiff;mask.tiff;-0.14;a;['left'];0.029292499995790422;0;1.615;3.49562199995853;64
221;S10;A;pre;3;59.995956269694275;[0.009795899968594313, 0.017095700022764504, 0.016786099993623793, 0.016263000026810914];45;1;0.05014480004319921;7.tif;mask.tiff;0.14;right;['right'];0.4485610999981873;1;0.699;2.9817177000222728;23
222;S10;A;pre;3;59.995956269694275;[0.013294000003952533, 0.017900299979373813, 0.015341599995736033, 0.01710380002623424];41;1;0.050345700001344085;2.tif;mask.tiff;0.14;left;['left'];0.0673776000039652;1;0.873;2.7845250999671407;19
223;S10;A;pre;3;59.995956269694275;[0.016888100013602525, 0.01624129997799173, 0.017127700033597648, 0.016013799991924316];87;4;0.049382800003513694;blank.tiff;mask.tiff;0.14;a;['left'];0.5782329000066966;0;1.81;4.22803290002048;65
224;S10;A;pre;3;59.995956269694275;[0.016456499986816198, 0.016466300003230572, 0.01654809998581186, 0.01706230000127107];70;4;0.0500766999903135;8.tif;mask.tiff;-0.14;right;['left'];0.09897609998006374;0;0.824;2.7648302000015974;72
225;S10;A;pre;3;59.995956269694275;[0.015949900029227138, 0.016889899969100952, 0.016472799994517118, 0.016768500034231693];81;1;0.05013119999784976;blank.tiff;mask.tiff;0.14;a;['left'];0.17127210000762716;0;0.9;2.9047685000114143;17
226;S10;A;pre;3;59.995956269694275;[0.01696009997976944, 0.016242500045336783, 0.01646969997091219, 0.016656899999361485];66;4;0.049369100015610456;3.tif;mask.tiff;-0.14;left;['left'];0.08273819996975362;0;0.901;2.8163043999811634;68
227;S10;A;pre;3;59.995956269694275;[0.011570700036827475, 0.016448099981062114, 0.016973700025118887, 0.017033599957358092];37;5;0.050455399963539094;7.tif;mask.tiff;0.14;right;['right'];0.2888148999772966;1;1.348;3.505295999988448;87
228;S10;A;pre;3;59.995956269694275;[0.01685169996926561, 0.016670000040903687, 0.016645099967718124, 0.017403700039722025];79;5;0.05071880004834384;8.tif;mask.tiff;0.14;right;['left'];0.054548999993130565;0;0.8;2.6880985000170767;89
229;S10;A;pre;3;59.995956269694275;[0.01414639997528866, 0.016874500026460737, 0.016453899967018515, 0.016658400010783225];54;2;0.04998680000426248;8.tif;mask.tiff;-0.14;right;['right'];0.10070750000886619;1;0.963;2.9007827999885194;40
230;S10;A;pre;3;59.995956269694275;[0.01653030002489686, 0.01687849999871105, 0.01652890001423657, 0.016738399979658425];69;4;0.050145799992606044;7.tif;mask.tiff;0.14;right;['right'];1.8626140999840572;1;1.061;4.761987899953965;71
231;S10;A;pre;3;59.995956269694275;[0.016749100002925843, 0.01612600003136322, 0.017332899966277182, 0.01633020001463592];67;4;0.04978910001227632;3.tif;mask.tiff;0.14;left;['right'];0.050828700012061745;0;0.85;2.7338232999900356;69
232;S10;A;pre;3;59.995956269694275;[0.015086899977177382, 0.01668290002271533, 0.01669029996264726, 0.01708570000482723];53;2;0.05045889999018982;7.tif;mask.tiff;0.14;right;['right'];0.43226400000276044;1;1.406;3.681895899993833;39
233;S10;A;pre;3;59.995956269694275;[0.016219599987380207, 0.016352800012100488, 0.01673610002035275, 0.01733010000316426];44;1;0.0504190000356175;7.tif;mask.tiff;-0.14;right;['right'];0.29955659998813644;1;0.703;2.849361999949906;22
234;S10;A;pre;3;59.995956269694275;[0.01714039995567873, 0.016087000025436282, 0.017037499987054616, 0.01691120001487434];46;1;0.05003570002736524;8.tif;mask.tiff;-0.14;right;['right'];0.12006220000330359;1;0.804;2.7703200999530964;24
235;S10;A;pre;3;59.995956269694275;[0.016330699960235506, 0.016632099985145032, 0.01677200000267476, 0.017073300026822835];39;5;0.050477400014642626;8.tif;mask.tiff;0.14;right;['right'];0.37775290000718087;1;0.834;3.0776714000385255;89
236;S10;A;pre;3;59.995956269694275;[0.016821000026538968, 0.01680879999184981, 0.017215100000612438, 0.01581040001474321];64;4;0.049834300007205456;2.tif;mask.tiff;-0.14;left;['left'];0.11906050000106916;1;0.863;2.818751799990423;66
237;S10;A;pre;3;59.995956269694275;[0.016814999980852008, 0.016325500037055463, 0.016611400002148002, 0.017397399991750717];29;4;0.05033430003095418;7.tif;mask.tiff;0.14;right;['right'];0.24439900001743808;1;0.776;2.860713300004136;71
238;S10;A;pre;3;59.995956269694275;[0.009121400013100356, 0.01639539998723194, 0.015855100005865097, 0.01729619997786358];68;4;0.04954669997096062;7.tif;mask.tiff;-0.14;right;['right'];0.4877113000256941;1;0.654;3.0047260000137612;70
239;S10;A;pre;3;59.995956269694275;[0.015878499951213598, 0.017144200042821467, 0.017002100008539855, 0.01615549996495247];24;4;0.05030180001631379;2.tif;mask.tiff;-0.14;left;['left'];0.13158670003758743;1;0.735;2.7033906999859028;66
240;S10;A;pre;3;59.995956269694275;[0.016308899968862534, 0.017431800020858645, 0.01621159998467192, 0.016369100019801408];98;5;0.050012500025331974;blank.tiff;mask.tiff;-0.14;a;['left'];0.20067359996028244;0;0.862;2.9011769999633543;80
241;S10;A;pre;3;59.995956269694275;[0.016217099968343973, 0.016636100015603006, 0.01670360000571236, 0.016712800017558038];1;1;0.050052500038873404;2.tif;mask.tiff;0.14;left;['right'];0.2756948000169359;0;1.37;3.4919831000152044;19
242;S10;A;pre;3;59.995956269694275;[0.01622779999161139, 0.016750100010540336, 0.016726100002415478, 0.016835200018249452];59;3;0.05031140003120527;3.tif;mask.tiff;0.14;left;['left'];0.052655499952379614;1;0.679;2.5698091000085697;53
243;S10;A;pre;3;59.995956269694275;[0.016859799972735345, 0.016862499993294477, 0.016527800005860627, 0.016674400016199797];6;1;0.0500647000153549;8.tif;mask.tiff;-0.14;right;['left'];0.10843680001562461;0;0.794;2.741331099998206;24
244;S10;A;pre;3;59.995956269694275;[0.016695800004526973, 0.01645160000771284, 0.016789799963589758, 0.017244000046048313];14;2;0.05048540001735091;8.tif;mask.tiff;-0.14;right;['right'];0.17972369998460636;0;0.882;2.9138034000061452;40
245;S10;A;pre;3;59.995956269694275;[0.016480299993418157, 0.016406800015829504, 0.016521000012289733, 0.01711269997758791];30;4;0.050040500005707145;8.tif;mask.tiff;-0.14;right;['right'];0.2698780999635346;1;0.773;2.887101700005587;72
246;S10;A;pre;3;59.995956269694275;[0.01931389997480437, 0.01423100003739819, 0.016460899962112308, 0.017018600017763674];65;4;0.04771050001727417;2.tif;mask.tiff;0.14;left;['left'];0.0404889999772422;0;0.929;2.8066335000330582;67
247;S10;A;pre;3;59.995956269694275;[0.017262599954847246, 0.01637480000499636, 0.016950400022324175, 0.01645330002065748];13;2;0.049778500047978014;7.tif;mask.tiff;0.14;right;['right'];1.781945499998983;1;1.356;5.014987999980804;39
248;S10;A;pre;3;59.995956269694275;[0.010772600013297051, 0.01645139994798228, 0.016873100015800446, 0.01691860001301393];85;3;0.05024309997679666;blank.tiff;mask.tiff;0.14;a;['right'];0.13518380001187325;0;0.994;3.002062699990347;49
249;S10;A;pre;3;59.995956269694275;[0.01589300000341609, 0.016881000017747283, 0.016348899982403964, 0.016619900008663535];89;5;0.04984980000881478;blank.tiff;mask.tiff;0.14;a;['left'];0.10199200001079589;0;0.908;2.851794800022617;81
250;S10;A;pre;3;59.995956269694275;[0.017035900033079088, 0.016239099961239845, 0.01704160001827404, 0.016559400013647974];76;5;0.04984009999316186;7.tif;mask.tiff;-0.14;right;['right'];0.16356880002422258;1;0.751;2.7470329999923706;86
251;S10;A;pre;3;59.995956269694275;[0.01644889998715371, 0.016569300030823797, 0.01701930002309382, 0.026678499998524785];12;2;0.0602671000524424;7.tif;mask.tiff;-0.14;right;['right'];0.1044230000115931;0;0.734;2.6706608000095002;38
252;S10;A;pre;3;59.995956269694275;[0.01581329997861758, 0.016607900033704937, 0.01727830001618713, 0.016068600001744926];82;2;0.049954800051636994;blank.tiff;mask.tiff;-0.14;a;['right'];0.6328285000054166;0;0.934;3.39902880002046;32
253;S10;A;pre;3;59.995956269694275;[0.015902700019069016, 0.01695560000371188, 0.016770699992775917, 0.016517399984877557];97;4;0.05024369998136535;blank.tiff;mask.tiff;0.14;a;['right'];0.3838864999706857;0;0.823;3.0502284999820404;65
254;S10;A;pre;3;59.995956269694275;[0.022930399980396032, 0.010422700026538223, 0.016483900020830333, 0.016653599974233657];51;2;0.04356020002160221;3.tif;mask.tiff;0.14;left;['left'];0.5447610999690369;0;0.971;3.3612931999959983;37
255;S10;A;pre;3;59.995956269694275;[0.016641800000797957, 0.017043800035025924, 0.016742999956477433, 0.01654100004816428];42;1;0.050327800039667636;3.tif;mask.tiff;-0.14;left;['left'];0.6672256999881938;0;4.592;7.10054020001553;20
256;S10;A;pre;3;59.995956269694275;[0.024201800057198852, 0.008678499958477914, 0.016591400024481118, 0.016686199989635497];22;3;0.04195609997259453;8.tif;mask.tiff;-0.14;right;['right'];0.5155803999514319;1;1.717;4.081682300020475;56
257;S10;A;pre;3;59.995956269694275;[0.01719109999248758, 0.015912200033199042, 0.017079099954571575, 0.01673910004319623];63;3;0.04973040003096685;8.tif;mask.tiff;0.14;right;['right'];0.2649385000113398;0;0.76;2.881603999994695;57
258;S10;A;pre;3;59.995956269694275;[0.0167422000085935, 0.016763199993874878, 0.017083499988075346, 0.016422600019723177];38;5;0.0502693000016734;8.tif;mask.tiff;-0.14;right;['left'];0.4485432999790646;0;1.322;3.615914700028952;88
259;S10;A;pre;3;59.995956269694275;[0.004432399990037084, 0.016765400010626763, 0.01633640000363812, 0.016677299980074167];0;1;0.04977909999433905;2.tif;mask.tiff;-0.14;left;['right'];0.24897169996984303;0;0.888;2.998843899986241;18
260;S10;A;pre;3;59.995956269694275;[0.01651819999096915, 0.01686840003821999, 0.016406699956860393, 0.01672559999860823];96;4;0.05000069999368861;blank.tiff;mask.tiff;-0.14;a;['right'];0.07793670002138242;0;1.076;2.9943113999906927;64
261;S10;A;pre;3;59.995956269694275;[0.016609099984634668, 0.016451300005428493, 0.016729200026020408, 0.016642300004605204];33;5;0.049822800036054105;2.tif;mask.tiff;0.14;left;['right'];0.09556279995013028;0;0.939;2.878482600033749;83
262;S10;A;pre;3;59.995956269694275;[0.017064600018784404, 0.015938699943944812, 0.017185500008054078, 0.016329700010828674];58;3;0.04945389996282756;3.tif;mask.tiff;-0.14;left;['right'];0.07732069998746738;1;0.729;2.6435112000326626;52
263;S10;A;pre;3;59.995956269694275;[0.016848200000822544, 0.016000699950382113, 0.01693180005531758, 0.017157599970232695];17;3;0.05009009997593239;2.tif;mask.tiff;0.14;left;['left'];0.9757529000053182;1;1.064;3.8922057000454515;51
264;S10;A;pre;3;59.995956269694275;[0.01650929998140782, 0.016846399987116456, 0.016820100019685924, 0.016735400015022606];93;2;0.050401900021824986;blank.tiff;mask.tiff;0.14;a;['right'];0.9299381000455469;0;0.959;3.729567500005942;33
265;S10;A;pre;3;59.995956269694275;[0.015892299998085946, 0.01718219998292625, 0.016446800029370934, 0.016468599962536246];26;4;0.05009759997483343;3.tif;mask.tiff;-0.14;left;['right'];0.1513101000455208;0;0.754;2.767772400053218;68
266;S10;A;pre;3;59.995956269694275;[0.0169272999628447, 0.01650660001905635, 0.017079300014302135, 0.01693639997392893];95;3;0.05052230000728741;blank.tiff;mask.tiff;0.14;a;['right'];0.12051970005268231;0;0.956;2.9204165000119247;49
267;S10;A;pre;3;59.995956269694275;[0.016799299977719784, 0.016776800039224327, 0.017052799987141043, 0.01644899998791516];15;2;0.05027860001428053;8.tif;mask.tiff;0.14;right;['right'];0.09266999998362735;0;0.827;2.759399599977769;41
268;S10;A;pre;3;59.995956269694275;[0.016849199950229377, 0.016784800041932613, 0.016420300002209842, 0.016348799981642514];47;1;0.04955390002578497;8.tif;mask.tiff;0.14;right;['right'];0.08441630000015721;0;1.113;3.0341953999595717;25
269;S10;A;pre;3;59.995956269694275;[0.016983000037726015, 0.01656429999275133, 0.0170456999912858, 0.01707250002073124];2;1;0.05068250000476837;3.tif;mask.tiff;-0.14;left;['left'];0.09400969999842346;1;0.69;2.6269051000126638;20
270;S10;A;pre;3;59.995956269694275;[0.016228699998464435, 0.017203300027176738, 0.016520999954082072, 0.016208100016228855];3;1;0.049932399997487664;3.tif;mask.tiff;0.14;left;['right'];0.3951448999578133;0;0.809;3.0445233999635093;21
271;S10;A;pre;3;59.995956269694275;[0.016689500014763325, 0.016590399958658963, 0.016083800001069903, 0.026746599993202835];74;5;0.0594207999529317;3.tif;mask.tiff;-0.14;left;['left'];0.25461970001924783;1;1.141;3.236894400033634;84
272;S10;A;pre;3;59.995956269694275;[0.016625799995381385, 0.016843900026287884, 0.016706999973393977, 0.016405200003646314];91;1;0.049956100003328174;blank.tiff;mask.tiff;0.14;a;['right'];0.22564050002256408;0;2.655;4.7260893999482505;17
273;S10;A;pre;3;59.995956269694275;[0.016326500044669956, 0.016774999967310578, 0.01640439999755472, 0.016617199988104403];61;3;0.0497965999529697;7.tif;mask.tiff;0.14;right;['left'];0.10146929998882115;1;0.901;2.8508099000318907;55
274;S10;A;pre;3;59.995956269694275;[0.009666700032539666, 0.016552999964915216, 0.016467300010845065, 0.01630499999737367];19;3;0.04932529997313395;3.tif;mask.tiff;0.14;left;['right'];0.06437600002391264;0;0.997;2.9310093999956734;53
275;S10;A;pre;3;59.995956269694275;[0.016800399986095726, 0.017003400018438697, 0.0163200999959372, 0.017028999980539083];43;1;0.05035249999491498;3.tif;mask.tiff;0.14;left;['right'];0.06299840001156554;0;1.175;3.0798075000056997;21
276;S10;A;pre;3;59.995956269694275;[0.016009100014343858, 0.016551599954254925, 0.01687710004625842, 0.01661179994698614];56;3;0.050040499947499484;2.tif;mask.tiff;-0.14;left;['left'];0.10664269997505471;1;0.632;2.589507299999241;50
277;S10;A;pre;3;59.995956269694275;[0.01609780004946515, 0.016808399988804013, 0.017158999980892986, 0.016344300005584955];28;4;0.050311699975281954;7.tif;mask.tiff;-0.14;right;['right'];0.09893400000873953;1;0.703;2.648604099988006;70
278;S10;A;pre;3;59.995956269694275;[0.01659430004656315, 0.016606099961791188, 0.016689200012478977, 0.016850900021381676];34;5;0.05014619999565184;3.tif;mask.tiff;-0.14;left;['left'];0.10490669996943325;0;0.782;2.7387519999756478;84
279;S10;A;pre;3;59.995956269694275;[0.016420300002209842, 0.016554399975575507, 0.017150000028777868, 0.01644589996431023];55;2;0.0501502999686636;8.tif;mask.tiff;0.14;right;['left'];0.20646519999718294;0;0.913;2.957547199970577;41
280;S10;A;pre;3;59.995956269694275;[0.016622900031507015, 0.0175226999563165, 0.01643280003918335, 0.016521999961696565];25;4;0.050477499957196414;2.tif;mask.tiff;0.14;left;['left'];0.424400300020352;1;0.809;3.074443700024858;67
281;S10;A;pre;3;59.995956269694275;[0.016885299992281944, 0.01643670001067221, 0.01666379999369383, 0.017335299984551966];32;5;0.050435799988918006;2.tif;mask.tiff;-0.14;left;['left'];0.5834286999888718;1;0.809;3.233544799964875;82
282;S10;A;pre;3;59.995956269694275;[0.016819500015117228, 0.016638100030831993, 0.016379899985622615, 0.0170339000178501];71;4;0.05005190003430471;8.tif;mask.tiff;0.14;right;['left'];0.1620888999896124;0;1.754;3.761681999952998;73
283;S10;A;pre;3;59.995956269694275;[0.009220400010235608, 0.016275900008622557, 0.016986999951768667, 0.016565099998842925];4;1;0.04982799995923415;7.tif;mask.tiff;-0.14;right;['right'];0.12312639999436215;1;0.844;2.806605399993714;22
284;S10;A;pre;3;59.995956269694275;[0.01641929999459535, 0.016312899999320507, 0.0170090000028722, 0.017226100026164204];84;3;0.05054800002835691;blank.tiff;mask.tiff;-0.14;a;['right'];0.09861690003890544;0;0.677;2.615028899977915;48
285;S10;A;pre;3;59.995956269694275;[0.016316300025209785, 0.01705009996658191, 0.016161000006832182, 0.0168161999899894];36;5;0.05002729996340349;7.tif;mask.tiff;-0.14;right;['right'];0.42677820002427325;1;2.933;5.193041499995161;86
286;S10;A;pre;3;59.995956269694275;[0.01665350003167987, 0.016900099988561124, 0.016886400000657886, 0.016373999998904765];35;5;0.050160499988123775;3.tif;mask.tiff;0.14;left;['right'];0.0571695999824442;0;0.649;2.539928499958478;85
287;S10;A;pre;3;59.995956269694275;[0.01719280000543222, 0.0162514999974519, 0.016683700028806925, 0.016582600015681237];52;2;0.04951780004194006;7.tif;mask.tiff;-0.14;right;['right'];0.6209742000210099;0;2.652;5.120944800029974;38
288;S10;A;pre;3;59.995956269694275;[0.01658779999706894, 0.01690080005209893, 0.016715099976863712, 0.016894000000320375];9;2;0.05050990002928302;2.tif;mask.tiff;0.14;left;['right'];0.07387109997216612;0;0.87;2.79025720001664;35
289;S10;A;pre;3;59.995956269694275;[0.016062599956057966, 0.016913000028580427, 0.01638340001227334, 0.016858199960552156];73;5;0.050154600001405925;2.tif;mask.tiff;0.14;left;['left'];0.12869390001287684;1;1.561;3.528881999955047;83
290;S10;A;pre;3;59.995956269694275;[0.009367200022097677, 0.016374099999666214, 0.016945399984251708, 0.016933700011577457];90;1;0.05025319999549538;blank.tiff;mask.tiff;-0.14;a;['right'];0.12646769999992102;0;1.333;3.326420400000643;16
291;S10;A;pre;3;59.995956269694275;[0.016772100003436208, 0.0166993000311777, 0.017003600019961596, 0.01645469997311011];16;3;0.050157600024249405;2.tif;mask.tiff;-0.14;left;['left'];0.09326059999875724;1;1.548;3.476548200007528;50
292;S10;A;pre;3;59.995956269694275;[0.01693919999524951, 0.01651560002937913, 0.016558000002987683, 0.01695550000295043];50;2;0.05002910003531724;3.tif;mask.tiff;-0.14;left;['left'];0.10695380001561716;1;0.771;2.7070542000001296;36
293;S10;A;pre;3;59.995956269694275;[0.017223199945874512, 0.01647240004967898, 0.01700289995642379, 0.01649770000949502];8;2;0.04997300001559779;2.tif;mask.tiff;-0.14;left;['left'];0.07436600001528859;0;2.124;4.04097269999329;34
294;S10;A;pre;3;59.995956269694275;[0.01627229998121038, 0.016769300040323287, 0.016982599976472557, 0.016583200020249933];77;5;0.05033510003704578;7.tif;mask.tiff;0.14;right;['right'];0.0812020999728702;1;0.968;2.8805953999981284;87
295;S10;A;pre;3;59.995956269694275;[0.017384599952492863, 0.016168100002687424, 0.017252499994356185, 0.01677050004946068];75;5;0.05019110004650429;3.tif;mask.tiff;0.14;left;['right'];0.3534135000081733;0;3.728;5.919973000010941;85
296;S10;A;pre;3;59.995956269694275;[0.014453700045123696, 0.016746099980082363, 0.016587699996307492, 0.016307700017932802];80;1;0.04964149999432266;blank.tiff;mask.tiff;-0.14;a;['left'];0.3064944999641739;0;0.889;3.5886515000020154;16
297;S10;A;pre;3;59.995956269694275;[0.01702209998620674, 0.016805000021122396, 0.016052099992521107, 0.016970700002275407];10;2;0.04982780001591891;3.tif;mask.tiff;-0.14;left;['right'];0.2829786000074819;1;0.884;3.0162303000106476;36
298;S10;A;pre;3;59.995956269694275;[0.016400300024542958, 0.01716009998926893, 0.016477800032589585, 0.01780449994839728];83;2;0.05144239997025579;blank.tiff;mask.tiff;0.14;a;['right'];0.06083480000961572;0;1.713;3.6108722999924794;33
299;S10;A;pre;3;59.995956269694275;[0.017129299987573177, 0.016407900024205446, 0.016972899960819632, 0.016895800014026463];57;3;0.05027659999905154;2.tif;mask.tiff;0.14;left;['left'];0.10679540003184229;1;1.007;2.956248600035906;51
300;S10;A;pre;4;59.995956269694275;[0.016262799967080355, 0.01684719999320805, 0.016678799991495907, 0.017027500027325004];66;4;0.05055350001202896;3.tif;mask.tiff;-0.14;left;['left'];0.43544450000626966;0;0.839;3.752156600006856;68
301;S10;A;pre;4;59.995956269694275;[0.016269899962935597, 0.016752300027292222, 0.016613900021184236, 0.016836199967656285];98;5;0.05020240001613274;blank.tiff;mask.tiff;-0.14;a;['left'];0.15234269999200478;0;0.842;2.8355258000083268;80
302;S10;A;pre;4;59.995956269694275;[0.01730830001179129, 0.01596129999961704, 0.01634059997741133, 0.016876000037882477];49;2;0.04917790001491085;2.tif;mask.tiff;0.14;left;['right'];0.04541819996666163;0;1.135;3.0283529000007547;35
303;S10;A;pre;4;59.995956269694275;[0.016268700012005866, 0.016745899978559464, 0.01664879999589175, 0.028128499980084598];96;4;0.06152319995453581;blank.tiff;mask.tiff;-0.14;a;['right'];0.08110460004536435;0;0.856;2.7974113000091165;64
304;S10;A;pre;4;59.995956269694275;[0.01608410000335425, 0.017057000019121915, 0.01628849998814985, 0.016653799975756556];47;1;0.04999929998302832;8.tif;mask.tiff;0.14;right;['right'];0.35185229999478906;0;0.948;3.1350700999610126;25
305;S10;A;pre;4;59.995956269694275;[0.01631690002977848, 0.016259800002444535, 0.016990199976135045, 0.01647979998961091];17;3;0.04972979996819049;2.tif;mask.tiff;0.14;left;['left'];0.09021049999864772;1;0.795;2.7236002999707125;51
306;S10;A;pre;4;59.995956269694275;[0.01642040000297129, 0.016682000015862286, 0.017344599997159094, 0.016370000026654452];20;3;0.05039660003967583;7.tif;mask.tiff;-0.14;right;['right'];0.35234759998274967;1;0.787;2.9860223999712616;54
307;S10;A;pre;4;59.995956269694275;[0.016585999983362854, 0.016519099997822195, 0.016760599974077195, 0.016325600037816912];8;2;0.0496053000097163;2.tif;mask.tiff;-0.14;left;['right'];0.1507465000031516;0;1.089;3.0843029999523424;34
308;S10;A;pre;4;59.995956269694275;[0.016689200012478977, 0.016187399975024164, 0.01688760000979528, 0.01631269999779761];64;4;0.04938769998261705;2.tif;mask.tiff;-0.14;left;['left'];0.45078220003051683;1;2.375;4.6672526999609545;66
309;S10;A;pre;4;59.995956269694275;[0.016940100002102554, 0.016878700000233948, 0.016556499991565943, 0.01656729995738715];99;5;0.05000249994918704;blank.tiff;mask.tiff;0.14;a;['right'];0.05371509998803958;0;1.071;2.9699391999747604;81
310;S10;A;pre;4;59.995956269694275;[0.01626380003290251, 0.016806199972052127, 0.01673179998761043, 0.016560200019739568];28;4;0.050098199979402125;7.tif;mask.tiff;-0.14;right;['right'];0.40079069999046624;1;0.861;3.1009712999803014;70
311;S10;A;pre;4;59.995956269694275;[0.01640449999831617, 0.016642400005366653, 0.01640109997242689, 0.017336799995973706];82;2;0.05038029997376725;blank.tiff;mask.tiff;-0.14;a;['right'];0.13099769997643307;0;1.151;3.1305584999499843;32
312;S10;A;pre;4;59.995956269694275;[0.015490999969188124, 0.016615500033367425, 0.017142599972430617, 0.01670059998286888];14;2;0.05045869998866692;8.tif;mask.tiff;-0.14;right;['right'];0.16687059996183962;1;0.978;2.9838958000182174;40
313;S10;A;pre;4;59.995956269694275;[0.016812800022307783, 0.024379199952818453, 0.008419100020546466, 0.017446600017137825];22;3;0.050244899990502745;8.tif;mask.tiff;-0.14;right;['right'];0.20722909999312833;1;0.82;2.8736465999973007;56
314;S10;A;pre;4;59.995956269694275;[0.015913099981844425, 0.016345700016245246, 0.016565400001127273, 0.017217100015841424];92;2;0.05012820003321394;blank.tiff;mask.tiff;-0.14;a;['right'];0.05625340004917234;0;0.813;2.7057181000127457;32
315;S10;A;pre;4;59.995956269694275;[0.015445600030943751, 0.017021099978592247, 0.017019700026139617, 0.01695229997858405];93;2;0.050993099983315915;blank.tiff;mask.tiff;0.14;a;['right'];0.10405279998667538;0;0.831;2.7696044000331312;33
316;S10;A;pre;4;59.995956269694275;[0.017755899985786527, 0.017485600023064762, 0.01638799998909235, 0.016599100024905056];67;4;0.05047270003706217;3.tif;mask.tiff;0.14;left;['right'];0.07032749999780208;0;2.068;4.019672500027809;69
317;S10;A;pre;4;59.995956269694275;[0.016760500031523407, 0.016604800010100007, 0.01624450000235811, 0.01653339999029413];13;2;0.049382700002752244;7.tif;mask.tiff;0.14;right;['right'];0.07687930000247434;1;0.739;2.6598529999610037;39
318;S10;A;pre;4;59.995956269694275;[0.01679079997120425, 0.022353600012138486, 0.011074799986090511, 0.016796000010799617];35;5;0.050224400009028614;3.tif;mask.tiff;0.14;left;['left'];0.30112740001641214;1;0.749;2.900760199991055;85
319;S10;A;pre;4;59.995956269694275;[0.016968299984000623, 0.016714799974579364, 0.016730700037442148, 0.016821799974422902];77;5;0.050267299986444414;7.tif;mask.tiff;0.14;right;['right'];0.09573930001351982;1;0.805;2.745882100018207;87
320;S10;A;pre;4;59.995956269694275;[0.0165242999792099, 0.016240600030869246, 0.016948400007095188, 0.017156399961095303];3;1;0.05034539999905974;3.tif;mask.tiff;0.14;left;['right'];0.22752349998336285;0;0.842;2.9111460000276566;21
321;S10;A;pre;4;59.995956269694275;[0.015357399999629706, 0.0173808999825269, 0.016481800004839897, 0.026900700002443045];95;3;0.06076339998980984;blank.tiff;mask.tiff;0.14;a;['right'];0.12529770005494356;0;0.765;2.725143100018613;49
322;S10;A;pre;4;59.995956269694275;[0.016910499951336533, 0.016841700009535998, 0.01640409999527037, 0.016680400003679097];71;4;0.049926200008485466;8.tif;mask.tiff;0.14;right;['right'];0.3449942000443116;1;0.991;3.1943179000518285;73
323;S10;A;pre;4;59.995956269694275;[0.016072699974756688, 0.016409600037150085, 0.017459499998949468, 0.015440999995917082];83;2;0.049310100032016635;blank.tiff;mask.tiff;0.14;a;['left'];0.1307505999575369;0;0.815;2.7802993999794126;33
324;S10;A;pre;4;59.995956269694275;[0.01697920000879094, 0.016143999993801117, 0.016886199999134988, 0.01665329997194931];54;2;0.049683499964885414;8.tif;mask.tiff;-0.14;right;['right'];0.08947589999297634;0;1.093;3.023176999995485;40
325;S10;A;pre;4;59.995956269694275;[0.016292400017846376, 0.017003399960231036, 0.01654810004401952, 0.016725099994800985];15;2;0.05027659999905154;8.tif;mask.tiff;0.14;right;['right'];0.13162599998759106;0;2.072;4.0480083000147715;41
326;S10;A;pre;4;59.995956269694275;[0.01677019998896867, 0.016771399998106062, 0.016402100038249046, 0.017046799999661744];69;4;0.05022030003601685;7.tif;mask.tiff;0.14;right;['right'];0.3299865000299178;1;0.712;2.8797199999680743;71
327;S10;A;pre;4;59.995956269694275;[0.01640719996066764, 0.017528399999719113, 0.01667830004589632, 0.016475899959914386];32;5;0.05068260000552982;2.tif;mask.tiff;-0.14;left;['right'];0.09844189998693764;0;0.855;2.79864200000884;82
328;S10;A;pre;4;59.995956269694275;[0.016641900001559407, 0.016828899970278144, 0.0168608000385575, 0.016212099988479167];2;1;0.04990179999731481;3.tif;mask.tiff;-0.14;left;['right'];0.05280870001297444;0;0.912;2.802429699979257;20
329;S10;A;pre;4;59.995956269694275;[0.016495699994266033, 0.016473099996801466, 0.01706679997732863, 0.016980200016405433];94;3;0.05052009999053553;blank.tiff;mask.tiff;-0.14;a;['right'];0.09170640003867447;0;0.755;2.6743278999929316;48
330;S10;A;pre;4;59.995956269694275;[0.01690690004033968, 0.01676259998930618, 0.016631599981337786, 0.016795900010038167];68;4;0.050190099980682135;7.tif;mask.tiff;-0.14;right;['right'];0.1366141999606043;1;0.805;2.78618270001607;70
331;S10;A;pre;4;59.995956269694275;[0.0164873999892734, 0.01646230003098026, 0.01722639997024089, 0.016002200020011514];58;3;0.049690900021232665;3.tif;mask.tiff;-0.14;left;['right'];0.18821809999644756;0;0.841;2.8715553999645635;52
332;S10;A;pre;4;59.995956269694275;[0.01727700000628829, 0.01616880000801757, 0.016944399976637214, 0.016310800041537732];9;2;0.049424000026192516;2.tif;mask.tiff;0.14;left;['right'];0.3917430000146851;0;1.097;3.3252444000099786;35
333;S10;A;pre;4;59.995956269694275;[0.013506899995263666, 0.015950199973303825, 0.016823300044052303, 0.01679839997086674];79;5;0.04957189998822287;8.tif;mask.tiff;0.14;right;['right'];0.09395270003005862;1;0.883;2.8102717000292614;89
334;S10;A;pre;4;59.995956269694275;[0.017040400009136647, 0.016799299977719784, 0.01685479999287054, 0.016944800037890673];10;2;0.050598900008480996;3.tif;mask.tiff;-0.14;left;['right'];0.09013440000126138;0;0.793;2.7402874999679625;36
335;S10;A;pre;4;59.995956269694275;[0.016600599978119135, 0.01657189999241382, 0.01685020001605153, 0.01677470002323389];37;5;0.05019680003169924;7.tif;mask.tiff;0.14;right;['right'];0.05334799998672679;1;0.656;2.55365240003448;87
336;S10;A;pre;4;59.995956269694275;[0.01429299998562783, 0.016731600044295192, 0.016691099968738854, 0.016477700031828135];73;5;0.04990040004486218;2.tif;mask.tiff;0.14;left;['right'];0.05648440000368282;0;4.469;6.356532100006007;83
337;S10;A;pre;4;59.995956269694275;[0.015859999984968454, 0.016942500020377338, 0.01675870001781732, 0.016562099975999445];27;4;0.0502633000141941;3.tif;mask.tiff;0.14;left;['right'];0.12056569999549538;0;0.999;2.95396419998724;69
338;S10;A;pre;4;59.995956269694275;[0.016507600026670843, 0.017094100010581315, 0.016362999973353, 0.016995100013446063];75;5;0.050452199997380376;3.tif;mask.tiff;0.14;left;['right'];0.1661001000320539;1;1.02;3.566067799984012;85
339;S10;A;pre;4;59.995956269694275;[0.017248299962375313, 0.016189300047699362, 0.016577999980654567, 0.01671679998980835];78;5;0.04948410001816228;8.tif;mask.tiff;-0.14;right;['right'];0.13210170000093058;0;1.035;3.0159227999974973;88
340;S10;A;pre;4;59.995956269694275;[0.012052700039930642, 0.016400199965573847, 0.0170963000273332, 0.01654659997439012];25;4;0.05004309996729717;2.tif;mask.tiff;0.14;left;['left'];0.07874339999398217;1;0.877;2.7953394999494776;67
341;S10;A;pre;4;59.995956269694275;[0.025140699988696724, 0.008511299965903163, 0.016727700014598668, 0.016439500031992793];84;3;0.041678500012494624;blank.tiff;mask.tiff;-0.14;a;['right'];0.05550939997192472;0;0.889;2.7885883999988437;48
342;S10;A;pre;4;59.995956269694275;[0.01668749999953434, 0.016471499984618276, 0.016721100022550672, 0.016805099963676184];89;5;0.04999769997084513;blank.tiff;mask.tiff;0.14;a;['right'];0.059063199965748936;0;1.636;3.542688100016676;81
343;S10;A;pre;4;59.995956269694275;[0.016400500026065856, 0.016743899963330477, 0.01741020003100857, 0.01589149999199435];42;1;0.0500455999863334;3.tif;mask.tiff;-0.14;left;['right'];0.06880279997130856;0;0.895;2.8034981000237167;20
344;S10;A;pre;4;59.995956269694275;[0.0141612000297755, 0.01660410000476986, 0.01675969996722415, 0.016150299983564764];39;5;0.04951409995555878;8.tif;mask.tiff;0.14;right;['right'];0.07832219998817891;0;1.146;3.061866999953054;89
345;S10;A;pre;4;59.995956269694275;[0.01625010004499927, 0.016591899970080703, 0.01743240002542734, 0.015999399998690933];24;4;0.05002369999419898;2.tif;mask.tiff;-0.14;left;['right'];0.12381789996288717;0;1.01;2.9736209999537095;66
346;S10;A;pre;4;59.995956269694275;[0.01655860000755638, 0.016390500008128583, 0.016463199979625642, 0.01683720003347844];21;3;0.049690900021232665;7.tif;mask.tiff;0.14;right;['right'];0.13568449998274446;1;0.815;2.7851442000246607;55
347;S10;A;pre;4;59.995956269694275;[0.01579109998419881, 0.016683199966792017, 0.017012700031045824, 0.016166499990504235];4;1;0.04986239998834208;7.tif;mask.tiff;-0.14;right;['right'];0.06544839998241514;1;0.841;2.74813299998641;22
348;S10;A;pre;4;59.995956269694275;[0.0160533000016585, 0.01704449998214841, 0.016307800018694252, 0.016380999993998557];40;1;0.04973329999484122;2.tif;mask.tiff;-0.14;left;['left'];0.07098239997867495;1;0.629;2.5379117999691516;18
349;S10;A;pre;4;59.995956269694275;[0.011226799979340285, 0.017270200012717396, 0.015897100034635514, 0.01726179994875565];72;5;0.05042909999610856;2.tif;mask.tiff;-0.14;left;['left'];0.07966590003343299;0;0.854;2.8133317999891005;82
350;S10;A;pre;4;59.995956269694275;[0.01682079996680841, 0.016768600034993142, 0.016254899965133518, 0.017193700012285262];90;1;0.05021720001241192;blank.tiff;mask.tiff;-0.14;a;['right'];0.04448370001045987;0;0.953;2.844859499949962;16
351;S10;A;pre;4;59.995956269694275;[0.016217999975197017, 0.016750300012063235, 0.016611099999863654, 0.016624099982436746];5;1;0.049985499994363636;7.tif;mask.tiff;0.14;right;['right'];0.34932819998357445;1;2.16;4.365590000001248;23
352;S10;A;pre;4;59.995956269694275;[0.008456300012767315, 0.017268700001295656, 0.016058399982284755, 0.017018700018525124];76;5;0.050345800002105534;7.tif;mask.tiff;-0.14;right;['right'];0.0951958000077866;1;0.929;2.8952709999866784;86
353;S10;A;pre;4;59.995956269694275;[0.01677780004683882, 0.01624739996623248, 0.017104100028518587, 0.016717199992854148];74;5;0.050068699987605214;3.tif;mask.tiff;-0.14;left;['right'];0.026831299997866154;0;0.855;2.7280160000082105;84
354;S10;A;pre;4;59.995956269694275;[0.016427399998065084, 0.016649600001983345, 0.016878800000995398, 0.016768500034231693];1;1;0.050296900037210435;2.tif;mask.tiff;0.14;left;['right'];0.09709070000099018;0;1.044;2.9804388000047766;19
355;S10;A;pre;4;59.995956269694275;[0.01647570001659915, 0.016985499998554587, 0.016763899999205023, 0.016361999965738505];86;4;0.050111399963498116;blank.tiff;mask.tiff;-0.14;a;['right'];0.176956599985715;0;0.897;2.910730599949602;64
356;S10;A;pre;4;59.995956269694275;[0.01712130004307255, 0.016194599971640855, 0.01707689999602735, 0.016830000036861748];55;2;0.05010150000452995;8.tif;mask.tiff;0.14;right;['right'];0.2326863000052981;0;1.441;3.5161634999676608;41
357;S10;A;pre;4;59.995956269694275;[0.017456000030506402, 0.015960999997332692, 0.016404599999077618, 0.016418199986219406];53;2;0.048783799982629716;7.tif;mask.tiff;0.14;right;['right'];0.07064890000037849;0;2.861;4.765865000023041;39
358;S10;A;pre;4;59.995956269694275;[0.016301600029692054, 0.017286599962972105, 0.01681330002611503, 0.01620119996368885];65;4;0.050301099952775985;2.tif;mask.tiff;0.14;left;['right'];0.10111539997160435;1;0.948;2.8839617000194266;67
359;S10;A;pre;4;59.995956269694275;[0.0071375000406987965, 0.017131000000517815, 0.016187399975024164, 0.016703200002666563];46;1;0.05002159997820854;8.tif;mask.tiff;-0.14;right;['right'];0.11672759999055415;1;0.728;2.682989799999632;24
360;S10;A;pre;4;59.995956269694275;[0.01682520000031218, 0.016550300002563745, 0.016787100001238286, 0.01680119999218732];38;5;0.05013859999598935;8.tif;mask.tiff;-0.14;right;['right'];0.12104830000316724;1;0.614;2.5877851999830455;88
361;S10;A;pre;4;59.995956269694275;[0.004594199999701232, 0.01565159996971488, 0.01693780004279688, 0.017115199996624142];18;3;0.0497046000091359;3.tif;mask.tiff;-0.14;left;['left'];0.108836000028532;1;0.906;2.891953599988483;52
362;S10;A;pre;4;59.995956269694275;[0.01662329997634515, 0.017123900004662573, 0.016816899995319545, 0.01668900001095608];45;1;0.0506298000109382;7.tif;mask.tiff;0.14;right;['right'];0.1754108999739401;1;0.822;2.842009700019844;23
363;S10;A;pre;4;59.995956269694275;[0.016329300007782876, 0.016706000023987144, 0.01701619999948889, 0.01643809996312484];48;2;0.050160299986600876;2.tif;mask.tiff;-0.14;left;['left'];0.15680510003585368;1;0.921;2.9231141000054777;34
364;S10;A;pre;4;59.995956269694275;[0.011644899961538613, 0.01676440000301227, 0.016976999992039055, 0.01618520001647994];31;4;0.049926600011531264;8.tif;mask.tiff;0.14;right;['right'];0.05897850001929328;1;0.888;2.7922626999788918;73
365;S10;A;pre;4;59.995956269694275;[0.01634959998773411, 0.017535499995574355, 0.016136399994138628, 0.016457199992146343];43;1;0.050129099981859326;3.tif;mask.tiff;0.14;left;['right'];0.08262760000070557;1;0.777;2.69946939998772;21
366;S10;A;pre;4;59.995956269694275;[0.016498300014063716, 0.016248099971562624, 0.01684610004303977, 0.01676440000301227];81;1;0.04985860001761466;blank.tiff;mask.tiff;0.14;a;['right'];0.167121899954509;0;0.989;3.000386800034903;17
367;S10;A;pre;4;59.995956269694275;[0.01709189999382943, 0.016311599989421666, 0.016504200000781566, 0.017152899992652237];63;3;0.04996869998285547;8.tif;mask.tiff;0.14;right;['right'];0.051369399996474385;1;0.947;2.834222299978137;57
368;S10;A;pre;4;59.995956269694275;[0.02422120003029704, 0.008788299979642034, 0.01713190000737086, 0.01625620003324002];12;2;0.04217640002025291;7.tif;mask.tiff;-0.14;right;['left'];0.3812083999509923;0;0.917;3.131487999984529;38
369;S10;A;pre;4;59.995956269694275;[0.016295800043735653, 0.0169463999918662, 0.017040700011420995, 0.016288999991957098];29;4;0.050276099995244294;7.tif;mask.tiff;0.14;right;['right'];0.08994320000056177;1;0.737;2.6733053000061773;71
370;S10;A;pre;4;59.995956269694275;[0.011834900011308491, 0.016249599982984364, 0.0172325000166893, 0.01621450000675395];34;5;0.049696600006427616;3.tif;mask.tiff;-0.14;left;['right'];0.04179059999296442;0;0.693;2.608273999998346;84
371;S10;A;pre;4;59.995956269694275;[0.01654229999985546, 0.016236299998126924, 0.01724889996694401, 0.015957900031935424];50;2;0.04944309999700636;3.tif;mask.tiff;-0.14;left;['right'];0.07953260000795126;0;1.049;2.9624212000053376;36
372;S10;A;pre;4;59.995956269694275;[0.01670969999395311, 0.016893699998036027, 0.016261699958704412, 0.016755100048612803];52;2;0.04991050000535324;7.tif;mask.tiff;-0.14;right;['right'];0.04326110001420602;1;0.8;2.676363299950026;38
373;S10;A;pre;4;59.995956269694275;[0.01701190002495423, 0.0164443000103347, 0.017353100003674626, 0.01592879998497665];60;3;0.049726199998985976;7.tif;mask.tiff;-0.14;right;['right'];0.0635292999795638;1;0.673;2.580184400023427;54
374;S10;A;pre;4;59.995956269694275;[0.02613089996157214, 0.007381700037512928, 0.016281799995340407, 0.01689319999422878];85;3;0.040556700027082115;blank.tiff;mask.tiff;0.14;a;['right'];0.0322176999761723;0;0.759;2.632043400022667;49
375;S10;A;pre;4;59.995956269694275;[0.016400699969381094, 0.016908599995076656, 0.016190700000151992, 0.01686380000319332];56;3;0.04996309999842197;2.tif;mask.tiff;-0.14;left;['left'];0.052803399972617626;1;1.039;2.936119099962525;50
376;S10;A;pre;4;59.995956269694275;[0.014777400007005781, 0.016240299970377237, 0.016711400006897748, 0.016599600028712302];36;5;0.04955130000598729;7.tif;mask.tiff;-0.14;right;['right'];0.06561280001187697;1;0.829;2.732791399990674;86
377;S10;A;pre;4;59.995956269694275;[0.01562209997791797, 0.01717469998402521, 0.01642980001633987, 0.016769099980592728];23;3;0.050373599980957806;8.tif;mask.tiff;0.14;right;['right'];0.038332599971909076;0;0.666;2.5377478000009432;57
378;S10;A;pre;4;59.995956269694275;[0.013604399980977178, 0.016912799968849868, 0.016821000026538968, 0.016451200004667044];70;4;0.05018500000005588;8.tif;mask.tiff;-0.14;right;['right'];0.03624159999890253;1;0.836;2.718811700004153;72
379;S10;A;pre;4;59.995956269694275;[0.0166742000146769, 0.016341499984264374, 0.0164756000158377, 0.01695720001589507];87;4;0.04977430001599714;blank.tiff;mask.tiff;0.14;a;['right'];0.026784099987708032;0;0.811;2.6768052999977954;65
380;S10;A;pre;4;59.995956269694275;[0.015363999991677701, 0.016323900024872273, 0.016971300006844103, 0.016392699966672808];62;3;0.049687899998389184;8.tif;mask.tiff;-0.14;right;['right'];0.03238300001248717;1;0.653;2.531956499966327;56
381;S10;A;pre;4;59.995956269694275;[0.016581600008066744, 0.016702599998097867, 0.017256900027859956, 0.01604149997001514];57;3;0.05000099999597296;2.tif;mask.tiff;0.14;left;['left'];0.05912739998893812;1;0.677;2.575575500028208;51
382;S10;A;pre;4;59.995956269694275;[0.016784400038886815, 0.01624859997536987, 0.016794399998616427, 0.016741700004786253];0;1;0.04978469997877255;2.tif;mask.tiff;-0.14;left;['left'];0.06791899999370798;1;0.732;2.634332899993751;18
383;S10;A;pre;4;59.995956269694275;[0.014434800017625093, 0.016408000024966896, 0.01649449998512864, 0.016399600019212812];7;1;0.04930210002930835;8.tif;mask.tiff;0.14;right;['right'];0.05878540000412613;0;0.762;2.6748227000352927;25
384;S10;A;pre;4;59.995956269694275;[0.016547399980481714, 0.015837499988265336, 0.01712149998638779, 0.015971200016792864];88;5;0.04893019999144599;blank.tiff;mask.tiff;-0.14;a;['right'];0.0639585999888368;0;0.614;2.514104900008533;80
385;S10;A;pre;4;59.995956269694275;[0.015111899992916733, 0.01653319998877123, 0.017412999994121492, 0.015853699995204806];51;2;0.04979989997809753;3.tif;mask.tiff;0.14;left;['right'];0.48216300003696233;0;1.096;3.4150372000294738;37
386;S10;A;pre;4;59.995956269694275;[0.016277399961836636, 0.016466000000946224, 0.016480199992656708, 0.01777630002470687];59;3;0.0507225000183098;3.tif;mask.tiff;0.14;left;['right'];0.09788379998644814;0;2.734;4.6649453999707475;53
387;S10;A;pre;4;59.995956269694275;[0.016455199976917356, 0.016267300001345575, 0.016358900000341237, 0.01668749999953434];41;1;0.04931370000122115;2.tif;mask.tiff;0.14;left;['left'];0.08479489997262135;0;0.669;2.609133700025268;19
388;S10;A;pre;4;59.995956269694275;[0.016775699972640723, 0.016831699991598725, 0.016937400039751083, 0.016815899987705052];44;1;0.05058500001905486;7.tif;mask.tiff;-0.14;right;['right'];0.1050012000487186;1;1.375;3.321700900036376;22
389;S10;A;pre;4;59.995956269694275;[0.016761799983214587, 0.016884999989997596, 0.01666390005266294, 0.01619819999905303];30;4;0.049747100041713566;8.tif;mask.tiff;-0.14;right;['right'];0.06006010004784912;1;0.81;2.7102160999784246;72
390;S10;A;pre;4;59.995956269694275;[0.0046239999937824905, 0.01625589997274801, 0.01660290005384013, 0.016995699959807098];80;1;0.04985449998639524;blank.tiff;mask.tiff;-0.14;a;['right'];0.12063360004685819;0;0.654;2.637135799974203;16
391;S10;A;pre;4;59.995956269694275;[0.015430699975695461, 0.024697300046682358, 0.008959099999628961, 0.01637329999357462];61;3;0.05002970003988594;7.tif;mask.tiff;0.14;right;['right'];0.03512130002491176;1;0.646;2.518296000023838;55
392;S10;A;pre;4;59.995956269694275;[0.016558000002987683, 0.016366800002288073, 0.017490700003691018, 0.016068500000983477];19;3;0.04992600000696257;3.tif;mask.tiff;0.14;left;['left'];0.4011233000201173;0;0.753;3.4351199999800883;53
393;S10;A;pre;4;59.995956269694275;[0.016680200002156198, 0.01651519996812567, 0.016942700021900237, 0.016182699997443706];11;2;0.049640599987469614;3.tif;mask.tiff;0.14;left;['right'];0.351613599981647;0;0.969;3.8184274999657646;37
394;S10;A;pre;4;59.995956269694275;[0.015634699957445264, 0.01677919999929145, 0.016677700041327626, 0.016454999975394458];91;1;0.04991190001601353;blank.tiff;mask.tiff;0.14;a;['right'];0.16581089998362586;0;0.901;2.949185200035572;17
395;S10;A;pre;4;59.995956269694275;[0.01635409996379167, 0.01680270000360906, 0.01671970001189038, 0.01692159997764975];16;3;0.05044399999314919;2.tif;mask.tiff;-0.14;left;['left'];0.21515120001276955;1;0.981;3.0318192000268027;50
396;S10;A;pre;4;59.995956269694275;[0.016274800000246614, 0.0163394000264816, 0.01703689998248592, 0.01669640000909567];26;4;0.05007270001806319;3.tif;mask.tiff;-0.14;left;['right'];0.14780390000669286;0;0.903;2.8974639999796636;68
397;S10;A;pre;4;59.995956269694275;[0.016753100033383816, 0.01623379997909069, 0.01739569997880608, 0.016329200007021427];97;4;0.049958699964918196;blank.tiff;mask.tiff;0.14;a;['right'];0.211447500041686;0;1.039;3.0946469000191428;65
398;S10;A;pre;4;59.995956269694275;[0.01702809997368604, 0.016396499995607883, 0.015991499996744096, 0.017255400016438216];6;1;0.049643400008790195;8.tif;mask.tiff;-0.14;right;['left'];1.0163105999818072;0;4.498;7.349428899993654;24
399;S10;A;pre;4;59.995956269694275;[0.009733500017318875, 0.025903999980073422, 0.007008299988228828, 0.01687390002189204];33;5;0.04978619999019429;2.tif;mask.tiff;0.14;left;['left'];0.08408219995908439;1;3.053;5.0005667000077665;83
