;subject;stim;session;block;frame_rate;frame_int;trial_nb;SOA;real_SOA;target;mask;position;cor_ans;obj_rating;obj_RT;subj_rating;subj_RT;trial_duration;trigger
0;S11;A;pre;1;59.77600734417098;[0.012812599998142105, 0.016618400000879774, 0.016264300000329968, 0.01700879999771132];44;1;0.04989149999892106;7.tif;mask.tiff;-0.14;right;['left'];4.709639000000607;0;1.623;8.200119299999642;22
1;S11;A;pre;1;59.77600734417098;[0.016190700000151992, 0.01744699999835575, 0.016133900000568246, 0.016754000000219094];39;5;0.05033489999914309;8.tif;mask.tiff;0.14;right;['left'];0.5210605000029318;1;0.936;3.305144999998447;89
2;S11;A;pre;1;59.77600734417098;[0.013919500001065899, 0.01632679999966058, 0.016732699998101452, 0.016333100000338163];84;3;0.049392599998100195;blank.tiff;mask.tiff;-0.14;a;['left'];0.9547836000019743;0;1.009;3.8052035000000615;48
3;S11;A;pre;1;59.77600734417098;[0.01633620000211522, 0.0165634000004502, 0.017119199997978285, 0.01624160000210395];82;2;0.04992420000053244;blank.tiff;mask.tiff;-0.14;a;['left'];0.9889111000011326;0;1.197;4.03885900000023;32
4;S11;A;pre;1;59.77600734417098;[0.01664829999936046, 0.016825800001242897, 0.0161575999991328, 0.016841100001329323];24;4;0.04982450000170502;2.tif;mask.tiff;-0.14;left;['right'];0.5992475999992166;0;1.376;3.8325354999979027;66
5;S11;A;pre;1;59.77600734417098;[0.016674400001647882, 0.016967200001090532, 0.015609999998559942, 0.017956100000446895];96;4;0.05053330000009737;blank.tiff;mask.tiff;-0.14;a;['right'];0.9615555999989738;0;1.307;4.111777699999948;64
6;S11;A;pre;1;59.77600734417098;[0.01680290000149398, 0.016722699998354074, 0.016010500003176276, 0.016729699997085845];40;1;0.049462899998616194;2.tif;mask.tiff;-0.14;left;['right'];0.5221296999989136;0;1.296;3.65462540000226;18
7;S11;A;pre;1;59.77600734417098;[0.01717070000086096, 0.01641400000153226, 0.0169026000003214, 0.017310600000200793];54;2;0.05062720000205445;8.tif;mask.tiff;-0.14;right;['left'];0.53503450000062;1;0.953;3.35125859999971;40
8;S11;A;pre;1;59.77600734417098;[0.01627110000117682, 0.016408499999670312, 0.017138300001533935, 0.01738189999741735];75;5;0.050928699998621596;3.tif;mask.tiff;0.14;left;['right'];0.4805216999993718;0;1.569;3.897018699997716;85
9;S11;A;pre;1;59.77600734417098;[0.016422400000010384, 0.0157673000030627, 0.017186799999763025, 0.017332799998257542];80;1;0.05028690000108327;blank.tiff;mask.tiff;-0.14;a;['right'];0.5022411000027205;0;0.999;3.334761099999014;16
10;S11;A;pre;1;59.77600734417098;[0.016592399999353802, 0.01653459999943152, 0.017075499999918975, 0.016286400001263246];87;4;0.04989650000061374;blank.tiff;mask.tiff;0.14;a;['right'];0.4894934999974794;0;0.81;3.1393201000028057;65
11;S11;A;pre;1;59.77600734417098;[0.016008099999453407, 0.01777869999932591, 0.01631930000075954, 0.015797500000189757];61;3;0.049895500000275206;7.tif;mask.tiff;0.14;right;['right'];0.3773927999973239;0;0.947;3.1767570999982127;55
12;S11;A;pre;1;59.77600734417098;[0.016025499997340376, 0.01724370000010822, 0.016103200003271922, 0.01687119999769493];95;3;0.05021810000107507;blank.tiff;mask.tiff;0.14;a;['right'];0.5810663000011118;0;0.909;3.330824999997276;49
13;S11;A;pre;1;59.77600734417098;[0.016944400002103066, 0.016465400000015507, 0.01708399999915855, 0.0163579000000027];64;4;0.04990729999917676;2.tif;mask.tiff;-0.14;left;['left'];0.2223253999982262;0;1.014;3.071851999997307;66
14;S11;A;pre;1;59.77600734417098;[0.02565389999654144, 0.0037984000009601004, 0.01641120000203955, 0.017291299998760223];46;1;0.037500900001759874;8.tif;mask.tiff;-0.14;right;['left'];0.6298781000004965;1;0.795;3.2622851000014634;24
15;S11;A;pre;1;59.77600734417098;[0.016559300001972588, 0.016738899998017587, 0.016553699999349192, 0.016697800001566065];27;4;0.049990399998932844;3.tif;mask.tiff;0.14;left;['left'];0.5465067000004638;1;0.834;3.2297574000003806;69
16;S11;A;pre;1;59.77600734417098;[0.016594600001553772, 0.016939900000579655, 0.01706209999974817, 0.016681400000379654];1;1;0.05068340000070748;2.tif;mask.tiff;0.14;left;['left'];3.137832600001275;1;1.419;6.406961099997716;19
17;S11;A;pre;1;59.77600734417098;[0.016284299999824725, 0.015933599999698345, 0.017938500001037028, 0.0156831999993301];43;1;0.04955530000006547;3.tif;mask.tiff;0.14;left;['right'];0.26284060000034515;1;1.025;3.128999399999884;21
18;S11;A;pre;1;59.77600734417098;[0.015462499999557622, 0.016019800001231488, 0.016641999998682877, 0.017235800001799362];70;4;0.04989760000171373;8.tif;mask.tiff;-0.14;right;['left'];0.4606162999989465;1;1.035;3.327223000000231;72
19;S11;A;pre;1;59.77600734417098;[0.015231800000037765, 0.0167793000000529, 0.016758400000981055, 0.017241999998077517];15;2;0.05077969999911147;8.tif;mask.tiff;0.14;right;['right'];0.543618299998343;1;1.443;3.8277601999980106;41
20;S11;A;pre;1;59.77600734417098;[0.01662880000003497, 0.016697800001566065, 0.01675729999988107, 0.016432399999757763];90;1;0.0498875000012049;blank.tiff;mask.tiff;-0.14;a;['left'];0.49019380000027013;1;0.869;3.1892951000008907;16
21;S11;A;pre;1;59.77600734417098;[0.01729890000206069, 0.016379400000005262, 0.016588700000284007, 0.016846200000145473];67;4;0.04981430000043474;3.tif;mask.tiff;0.14;left;['right'];0.26499409999814816;1;2.098;4.198001500000828;69
22;S11;A;pre;1;59.77600734417098;[0.01592940000045928, 0.016601800001808442, 0.017078499997296603, 0.01692900000125519];51;2;0.050609300000360236;3.tif;mask.tiff;0.14;left;['right'];0.5902783000019554;1;0.836;3.2737320000014734;37
23;S11;A;pre;1;59.77600734417098;[0.01720270000078017, 0.0071637000000919215, 0.016613600000709994, 0.016688399999111425];19;3;0.04046569999991334;3.tif;mask.tiff;0.14;left;['left'];0.7403387999984261;1;0.824;3.440960100000666;53
24;S11;A;pre;1;59.77600734417098;[0.016211499998462386, 0.01780000000144355, 0.01574360000086017, 0.016579799997998634];22;3;0.050123400000302354;8.tif;mask.tiff;-0.14;right;['right'];4.2884903000012855;0;1.611;7.737314800000604;56
25;S11;A;pre;1;59.77600734417098;[0.016526999999769032, 0.01666750000003958, 0.01661700000113342, 0.016846200000145473];48;2;0.05013070000131847;2.tif;mask.tiff;-0.14;left;['left'];0.8371442999996361;1;1.597;4.2700638999995135;34
26;S11;A;pre;1;59.77600734417098;[0.016690599997673417, 0.017012800002703443, 0.01654729999791016, 0.016587099999014754];18;3;0.050147199999628356;3.tif;mask.tiff;-0.14;left;['right'];0.2359997999992629;1;0.805;2.8850196999992477;52
27;S11;A;pre;1;59.77600734417098;[0.01727279999977327, 0.016001100000721635, 0.016270500000246102, 0.017549500000313856];66;4;0.04982110000128159;3.tif;mask.tiff;-0.14;left;['right'];0.9019847000017762;1;0.883;3.6350768000011158;68
28;S11;A;pre;1;59.77600734417098;[0.016992699998809258, 0.01645519999874523, 0.016913200000999495, 0.01656609999918146];7;1;0.049934499998926185;8.tif;mask.tiff;0.14;right;['right'];0.16279489999942598;1;0.614;2.612753299999895;25
29;S11;A;pre;1;59.77600734417098;[0.01570989999891026, 0.016930800000409363, 0.01644970000052126, 0.017140399999334477];26;4;0.0505209000002651;3.tif;mask.tiff;-0.14;left;['left'];0.9298749999979918;1;0.842;3.614723499998945;68
30;S11;A;pre;1;59.77600734417098;[0.016454299999168143, 0.016339300000254298, 0.017046199998731026, 0.016582100000960054];62;3;0.04996759999994538;8.tif;mask.tiff;-0.14;right;['right'];0.30556280000018887;1;1.122;3.8890811999990547;56
31;S11;A;pre;1;59.77600734417098;[0.016168699999980163, 0.016674099999363534, 0.017377100000885548, 0.01668699999936507];83;2;0.05073819999961415;blank.tiff;mask.tiff;0.14;a;['right'];1.012048100001266;1;1.391;4.245662599998468;33
32;S11;A;pre;1;59.77600734417098;[0.013126699999702396, 0.016830799999297597, 0.016497399999934714, 0.017617400000744965];32;5;0.050945599999977276;2.tif;mask.tiff;-0.14;left;['left'];0.5635616999970807;1;0.836;3.2469531999995525;82
33;S11;A;pre;1;59.77600734417098;[0.01669910000055097, 0.017706399998132838, 0.015504400002100738, 0.017476599998190068];34;5;0.05068739999842364;3.tif;mask.tiff;-0.14;left;['right'];0.7411764999997104;1;0.791;3.375658500001009;84
34;S11;A;pre;1;59.77600734417098;[0.01683240000056685, 0.016587199999776203, 0.016394900001614587, 0.016853499997523613];86;4;0.049835599998914404;blank.tiff;mask.tiff;-0.14;a;['left'];2.769007499999134;1;2.048;6.651607200001308;64
35;S11;A;pre;1;59.77600734417098;[0.01704020000033779, 0.0167741000004753, 0.01676229999793577, 0.01660230000197771];4;1;0.05013870000038878;7.tif;mask.tiff;-0.14;right;['right'];0.15355530000306317;1;0.751;2.736899200001062;22
36;S11;A;pre;1;59.77600734417098;[0.010738000000856118, 0.016664499999023974, 0.017366200001561083, 0.017179200000100536];73;5;0.05120990000068559;2.tif;mask.tiff;0.14;left;['right'];0.12570749999940745;1;0.77;2.7591149999971094;83
37;S11;A;pre;1;59.77600734417098;[0.016700500000297325, 0.016401099997892743, 0.01753370000005816, 0.015929000001051463];81;1;0.04986379999900237;blank.tiff;mask.tiff;0.14;a;['right'];0.49684610000258544;0;1.222;4.164100599999074;17
38;S11;A;pre;1;59.77600734417098;[0.016738400001486298, 0.016538299998501316, 0.017797000000427943, 0.01587890000155312];37;5;0.05021420000048238;7.tif;mask.tiff;0.14;right;['right'];0.34898880000037025;1;1.178;3.366362599997956;87
39;S11;A;pre;1;59.77600734417098;[0.01682020000225748, 0.016446800000267103, 0.015976699996826937, 0.01751640000293264];71;4;0.04993990000002668;8.tif;mask.tiff;0.14;right;['right'];0.3640637999997125;1;1.279;3.4809325999995053;73
40;S11;A;pre;1;59.77600734417098;[0.0162105999988853, 0.01716880000094534, 0.016189699999813456, 0.016753399999288376];49;2;0.05011190000004717;2.tif;mask.tiff;0.14;left;['left'];0.7136501999993925;1;0.875;3.43061459999808;35
41;S11;A;pre;1;59.77600734417098;[0.016187799999897834, 0.01692719999846304, 0.01697720000083791, 0.01602679999996326];74;5;0.04993119999926421;3.tif;mask.tiff;-0.14;left;['left'];0.23172429999976885;1;1.148;3.2157841000007465;84
42;S11;A;pre;1;59.77600734417098;[0.016843600002175663, 0.017524899998534238, 0.015483800001675263, 0.016906699998799013];5;1;0.049915399999008514;7.tif;mask.tiff;0.14;right;['right'];0.23864719999983208;1;1.459;3.538108900000225;23
43;S11;A;pre;1;59.77600734417098;[0.017232499998499407, 0.01605530000233557, 0.017012699998304015, 0.01605299999937415];94;3;0.04912100000001374;blank.tiff;mask.tiff;-0.14;a;['right'];0.27510910000273725;1;1.423;3.5413405999970564;48
44;S11;A;pre;1;59.77600734417098;[0.016572399999859044, 0.016862000000401167, 0.016349300000001676, 0.016744600001402432];10;2;0.049955900001805276;3.tif;mask.tiff;-0.14;left;['right'];0.384931399999914;0;0.772;3.001722699998936;36
45;S11;A;pre;1;59.77600734417098;[0.01664159999927506, 0.016390499997214647, 0.01697500000227592, 0.017012000000249827];76;5;0.050377499999740394;7.tif;mask.tiff;-0.14;right;['right'];0.5904195999974036;1;0.93;3.3562014999988605;86
46;S11;A;pre;1;59.77600734417098;[0.017075800002203323, 0.016379299999243813, 0.016350300000340212, 0.017315299999609124];9;2;0.05004489999919315;2.tif;mask.tiff;0.14;left;['left'];0.5865741999987222;1;2.487;4.919795699999668;35
47;S11;A;pre;1;59.77600734417098;[0.016627900000457885, 0.016465299999254057, 0.01661009999952512, 0.016658900000038557];42;1;0.04973429999881773;3.tif;mask.tiff;-0.14;left;['left'];0.43442700000014156;1;0.858;3.1346830999973463;20
48;S11;A;pre;1;59.77600734417098;[0.016579600000113714, 0.016383100002713036, 0.016919099998631282, 0.016144699999131262];3;1;0.04944690000047558;3.tif;mask.tiff;0.14;left;['right'];0.37304500000027474;1;0.895;3.106594500000938;21
49;S11;A;pre;1;59.77600734417098;[0.01748549999683746, 0.016480700000101933, 0.016789700002846075, 0.01650379999773577];52;2;0.04977420000068378;7.tif;mask.tiff;-0.14;right;['right'];0.27636530000017956;1;0.718;2.8267469000020355;38
50;S11;A;pre;1;59.77600734417098;[0.01621019999947748, 0.017212800001288997, 0.015489199999137782, 0.01817719999962719];91;1;0.05087920000005397;blank.tiff;mask.tiff;0.14;a;['left'];0.5425556999980472;1;0.891;3.2761460000001534;17
51;S11;A;pre;1;59.77600734417098;[0.015788799999427283, 0.017325400000117952, 0.016567400001804344, 0.01658579999639187];55;2;0.050478599998314166;8.tif;mask.tiff;0.14;right;['right'];0.5869158000023162;1;0.915;3.3371746000011626;41
52;S11;A;pre;1;59.77600734417098;[0.01696570000058273, 0.016509500001120614, 0.016260000000329455, 0.016241400000581052];17;3;0.04901090000203112;2.tif;mask.tiff;0.14;left;['left'];0.34144820000074105;1;0.795;2.99056290000226;51
53;S11;A;pre;1;59.77600734417098;[0.016191800001251977, 0.01642590000119526, 0.016477499997563427, 0.016628100001980783];97;4;0.04953150000073947;blank.tiff;mask.tiff;0.14;a;['right'];0.3655624999992142;1;0.834;3.032763299997896;65
54;S11;A;pre;1;59.77600734417098;[0.016259599997283658, 0.016736600002332125, 0.01668929999868851, 0.016950299999734852];0;1;0.05037620000075549;2.tif;mask.tiff;-0.14;left;['right'];0.3022668000012345;1;1.236;3.4022435000006226;18
55;S11;A;pre;1;59.77600734417098;[0.01717339999959222, 0.016051899998274166, 0.017034899999998743, 0.016525800001545576];29;4;0.049612599999818485;7.tif;mask.tiff;0.14;right;['right'];0.5049659999967844;1;1.367;3.7211005999997724;71
56;S11;A;pre;1;59.77600734417098;[0.017114800000854302, 0.016153399999893736, 0.017583999997441424, 0.015614100000675535];85;3;0.049351499998010695;blank.tiff;mask.tiff;0.14;a;['left'];0.7427945000017644;1;0.808;3.392601999999897;49
57;S11;A;pre;1;59.77600734417098;[0.016770400001405505, 0.01609630000166362, 0.016973499998130137, 0.016949500000919215];21;3;0.050019300000712974;7.tif;mask.tiff;0.14;right;['left'];1.287818500000867;1;1.006;4.137508900003013;55
58;S11;A;pre;1;59.77600734417098;[0.01687079999828711, 0.016162900003109826, 0.01623029999973369, 0.017801699999836273];89;5;0.05019490000267979;blank.tiff;mask.tiff;0.14;a;['right'];0.5337952999980189;0;0.981;3.351318799999717;81
59;S11;A;pre;1;59.77600734417098;[0.01691690000006929, 0.016478099998494145, 0.017232800000783755, 0.01631650000126683];38;5;0.05002740000054473;8.tif;mask.tiff;-0.14;right;['right'];1.0425728999980493;0;1.16;4.043277099997795;88
60;S11;A;pre;1;59.77600734417098;[0.01232259999960661, 0.016579299997829366, 0.015711500000179512, 0.0182812000020931];99;5;0.05057200000010198;blank.tiff;mask.tiff;0.14;a;['right'];0.6354290999988734;1;0.92;3.418708699999115;81
61;S11;A;pre;1;59.77600734417098;[0.015848100003495347, 0.01693879999947967, 0.01665089999733027, 0.016398100000515115];47;1;0.049987799997325055;8.tif;mask.tiff;0.14;right;['left'];1.0029858999987482;1;1.23;4.0696396000021196;25
62;S11;A;pre;1;59.77600734417098;[0.016383800000767224, 0.016635600000881823, 0.016508799999428447, 0.01634850000118604];30;4;0.04949290000149631;8.tif;mask.tiff;-0.14;right;['right'];0.5861099999965518;1;0.808;3.2357554999980493;72
63;S11;A;pre;1;59.77600734417098;[0.017147499998827698, 0.0166921000018192, 0.01651270000002114, 0.017100099998060614];93;2;0.050304899999900954;blank.tiff;mask.tiff;0.14;a;['left'];0.20895170000221697;1;1.461;3.5093129000015324;33
64;S11;A;pre;1;59.77600734417098;[0.016922499999054708, 0.016693699999450473, 0.017106700001022546, 0.016345399999408983];72;5;0.050145799999882;2.tif;mask.tiff;-0.14;left;['left'];0.275040500000614;1;0.982;3.0917722999984107;82
65;S11;A;pre;1;59.77600734417098;[0.01637050000135787, 0.01607489999878453, 0.026894499998888932, 0.005612200002360623];23;3;0.048581600000034086;8.tif;mask.tiff;0.14;right;['right'];1.7151116999993974;1;0.734;4.280868999998347;57
66;S11;A;pre;1;59.77600734417098;[0.014724599997862242, 0.015402800003357697, 0.0164742999986629, 0.017317800000455463];41;1;0.04919490000247606;2.tif;mask.tiff;0.14;left;['left'];0.42495440000129747;1;2.15;4.405364799997187;19
67;S11;A;pre;1;59.77600734417098;[0.015392399996926542, 0.017227399999683257, 0.0163769000027969, 0.017242300000361865];45;1;0.050846600002842024;7.tif;mask.tiff;0.14;right;['right'];0.4161969999986468;1;0.837;3.099291100003029;23
68;S11;A;pre;1;59.77600734417098;[0.016444000000774395, 0.016900900001928676, 0.016646799998852657, 0.020029200000863057];58;3;0.05357690000164439;3.tif;mask.tiff;-0.14;left;['left'];0.25772520000100485;1;0.769;2.8739964999986114;52
69;S11;A;pre;1;59.77600734417098;[0.016487799999595154, 0.016338000001269393, 0.016675599999871338, 0.01675229999818839];88;5;0.04976589999932912;blank.tiff;mask.tiff;-0.14;a;['right'];1.2950918999995338;0;1.038;4.911435000001802;80
70;S11;A;pre;1;59.77600734417098;[0.016508600001543527, 0.016696200000296813, 0.01629559999855701, 0.016986099999485305];14;2;0.049977899998339126;8.tif;mask.tiff;-0.14;right;['right'];0.298792699999467;1;1.243;3.382055500002025;40
71;S11;A;pre;1;59.77600734417098;[0.01719299999967916, 0.01598550000198884, 0.01669419999961974, 0.016734400000132155];35;5;0.049414100001740735;3.tif;mask.tiff;0.14;left;['left'];0.2565976000005321;1;1.177;3.2729895999982546;85
72;S11;A;pre;1;59.77600734417098;[0.01677419999759877, 0.0166456000006292, 0.016944300001341617, 0.016491999998834217];25;4;0.050081900000805035;2.tif;mask.tiff;0.14;left;['left'];0.40735850000055507;1;0.763;3.0072638999990886;67
73;S11;A;pre;1;59.77600734417098;[0.01669179999953485, 0.01668699999936507, 0.016701000000466593, 0.01678619999802322];79;5;0.050174199997854885;8.tif;mask.tiff;0.14;right;['right'];0.16752460000134306;1;1.205;3.2173692999967898;89
74;S11;A;pre;1;59.77600734417098;[0.009197999999742024, 0.01670169999852078, 0.016802099999040365, 0.016612900002655806];56;3;0.05011670000021695;2.tif;mask.tiff;-0.14;left;['right'];0.5148602000008395;1;0.792;3.1643664999974135;50
75;S11;A;pre;1;59.77600734417098;[0.01677890000064508, 0.016397999999753665, 0.017405200000212062, 0.01624179999998887];63;3;0.0500449999999546;8.tif;mask.tiff;0.14;right;['right'];0.6188619999993534;1;0.882;3.3345980000012787;57
76;S11;A;pre;1;59.77600734417098;[0.016058999997767387, 0.017075600000680424, 0.016584000000875676, 0.01692170000023907];33;5;0.05058130000179517;2.tif;mask.tiff;0.14;left;['left'];0.46093699999983073;1;0.761;3.0562307000000146;83
77;S11;A;pre;1;59.77600734417098;[0.01678179999726126, 0.017159800001536496, 0.016468300000269664, 0.01669969999784371];12;2;0.05032779999964987;7.tif;mask.tiff;-0.14;right;['right'];0.27798020000045653;1;0.915;3.026999199999409;38
78;S11;A;pre;1;59.77600734417098;[0.016780900001322152, 0.016613799998594914, 0.017015000001265435, 0.016025900000386173];77;5;0.04965470000024652;7.tif;mask.tiff;0.14;right;['right'];0.22262599999885424;1;0.74;2.805033299999195;87
79;S11;A;pre;1;59.77600734417098;[0.015470599999389378, 0.01745699999810313, 0.016409500000008848, 0.01684659999955329];31;4;0.05071309999766527;8.tif;mask.tiff;0.14;right;['right'];0.21720790000108536;1;0.704;2.7673579000002064;73
80;S11;A;pre;1;59.77600734417098;[0.016803700000309618, 0.015492200000153389, 0.017415600003005238, 0.016125299996929243];50;2;0.04903310000008787;3.tif;mask.tiff;-0.14;left;['left'];0.3771104000006744;1;1.057;4.409097899999324;36
81;S11;A;pre;1;59.77600734417098;[0.013456599997880403, 0.017063700001017423, 0.016139300001668744, 0.017464599997765617];11;2;0.050667600000451785;3.tif;mask.tiff;0.14;left;['left'];0.6733755999994173;1;2.432;4.94021139999677;37
82;S11;A;pre;1;59.77600734417098;[0.015366700001322897, 0.016785299998446135, 0.01613309999811463, 0.017040900002029957];78;5;0.04995929999859072;8.tif;mask.tiff;-0.14;right;['left'];0.8588024000018777;0;0.92;3.6246202000002086;88
83;S11;A;pre;1;59.77600734417098;[0.015507199997955468, 0.016460100003314437, 0.016378699998313095, 0.016908900000998983];8;2;0.049747700002626516;2.tif;mask.tiff;-0.14;left;['left'];0.6188781000018935;1;0.965;3.4189866999986407;34
84;S11;A;pre;1;59.77600734417098;[0.016423900000518188, 0.01675479999903473, 0.016662300000461983, 0.016313199997966876];69;4;0.04973029999746359;7.tif;mask.tiff;0.14;right;['right'];0.2502340999999433;1;0.891;2.9849930999989738;71
85;S11;A;pre;1;59.77600734417098;[0.016664200000377605, 0.016646799998852657, 0.016659199998684926, 0.016235200000664918];28;4;0.0495411999982025;7.tif;mask.tiff;-0.14;right;['left'];0.5169526000026963;1;0.816;3.16704000000027;70
86;S11;A;pre;1;59.77600734417098;[0.012807099999918137, 0.016617799999949057, 0.01689280000209692, 0.01659289999952307];6;1;0.050103500001569046;8.tif;mask.tiff;-0.14;right;['right'];0.20768259999749716;1;0.83;2.8736318000010215;24
87;S11;A;pre;1;59.77600734417098;[0.01616979999744217, 0.01697000000058324, 0.016335500000423053, 0.01716129999840632];68;4;0.050466799999412615;7.tif;mask.tiff;-0.14;right;['left'];0.6356753999971261;1;0.905;3.385374599998613;70
88;S11;A;pre;1;59.77600734417098;[0.016361800000595395, 0.01732649999757996, 0.01624420000007376, 0.016828600000735605];65;4;0.050399299998389324;2.tif;mask.tiff;0.14;left;['right'];0.189512900000409;1;1.329;3.3557897999999113;67
89;S11;A;pre;1;59.77600734417098;[0.016576300000451738, 0.016894000000320375, 0.016282600001432, 0.017008499999064952];92;2;0.05018510000081733;blank.tiff;mask.tiff;-0.14;a;['right'];1.0774459999993269;1;0.991;3.926978399998916;32
90;S11;A;pre;1;59.77600734417098;[0.0162157999984629, 0.016143900000315625, 0.01729170000180602, 0.01705269999729353];20;3;0.050488299999415176;7.tif;mask.tiff;-0.14;right;['right'];0.31459540000287234;1;1.18;3.3315413000018452;54
91;S11;A;pre;1;59.77600734417098;[0.017123199999332428, 0.01638680000178283, 0.016603599997324636, 0.01673810000283993];2;1;0.049728500001947396;3.tif;mask.tiff;-0.14;left;['left'];0.4594678999965254;1;1.097;3.391756199998781;20
92;S11;A;pre;1;59.77600734417098;[0.016451600000436883, 0.017085600000427803, 0.01661239999884856, 0.016993900000670692];36;5;0.050691899999947054;7.tif;mask.tiff;-0.14;right;['right'];0.23322790000020177;1;0.776;2.866349900003115;86
93;S11;A;pre;1;59.77600734417098;[0.016219199998886324, 0.01748609999776818, 0.01692620000176248, 0.016407700000854675];60;3;0.050820000000385335;7.tif;mask.tiff;-0.14;right;['right'];0.5482286000005843;1;1.332;3.713892299998406;54
94;S11;A;pre;1;59.77600734417098;[0.005937800000538118, 0.01670419999936712, 0.017580600000655977, 0.015959500000462867];59;3;0.050244300000485964;3.tif;mask.tiff;0.14;left;['left'];0.23124640000241925;1;0.971;3.0475022999999055;53
95;S11;A;pre;1;59.77600734417098;[0.016315000000759028, 0.016956999999820255, 0.016037199999118457, 0.016867400001501665];98;5;0.049861600000440376;blank.tiff;mask.tiff;-0.14;a;['right'];0.3300782000005711;0;1.868;4.045996100001503;80
96;S11;A;pre;1;59.77600734417098;[0.011613899998337729, 0.01723590000256081, 0.017747599998983787, 0.014968499999667984];53;2;0.04995200000121258;7.tif;mask.tiff;0.14;right;['right'];0.47083870000278694;1;1.518;3.8541842000013276;39
97;S11;A;pre;1;59.77600734417098;[0.016511599998921156, 0.016465100001369137, 0.01705279999805498, 0.015948000000207685];16;3;0.0494658999996318;2.tif;mask.tiff;-0.14;left;['left'];0.1291815000004135;1;0.853;2.8289306000006036;50
98;S11;A;pre;1;59.77600734417098;[0.01728680000087479, 0.016238100000919076, 0.0168030999993789, 0.016443600001366576];57;3;0.04948480000166455;2.tif;mask.tiff;0.14;left;['left'];2.651416500000778;1;0.829;5.3169292000020505;51
99;S11;A;pre;1;59.77600734417098;[0.015285100002074614, 0.01764270000057877, 0.015861199997743824, 0.017658799999480834];13;2;0.05116269999780343;7.tif;mask.tiff;0.14;right;['right'];0.7033626999982516;1;1.041;3.5858711000000767;39
100;S11;A;pre;2;59.77600734417098;[0.017139199997473042, 0.016223200000240467, 0.016957300002104603, 0.017064100000425242];81;1;0.05024460000277031;blank.tiff;mask.tiff;0.14;a;['right'];0.2197502999988501;1;0.865;2.9368170000016107;17
101;S11;A;pre;2;59.77600734417098;[0.01689030000125058, 0.016259899999568006, 0.016517100000783103, 0.017346799999359064];97;4;0.05012379999971017;blank.tiff;mask.tiff;0.14;a;['left'];0.5103777000003902;1;0.858;3.2105095999977493;65
102;S11;A;pre;2;59.77600734417098;[0.015850300002057338, 0.016523599999345606, 0.01685899999938556, 0.016383400001359405];2;1;0.04976600000009057;3.tif;mask.tiff;-0.14;left;['right'];0.5420169000026362;1;1.093;3.4750672000009217;20
103;S11;A;pre;2;59.77600734417098;[0.016819100001157494, 0.016203699997277, 0.016485600001033163, 0.01690500000040629];39;5;0.04959429999871645;8.tif;mask.tiff;0.14;right;['left'];0.8496895999996923;1;0.807;3.498609700000088;89
104;S11;A;pre;2;59.77600734417098;[0.016552700002648635, 0.016855399997439235, 0.0166047000020626, 0.016412499997386476];73;5;0.04987259999688831;2.tif;mask.tiff;0.14;left;['right'];0.7527362000000721;1;1.135;3.7363427999989653;83
105;S11;A;pre;2;59.77600734417098;[0.017150600000604754, 0.016593699998338707, 0.01649140000154148, 0.016864999997778796];34;5;0.04995009999765898;3.tif;mask.tiff;-0.14;left;['right'];1.976526999998896;1;0.879;4.693293199998152;84
106;S11;A;pre;2;59.77600734417098;[0.015885000000707805, 0.016860700001416262, 0.016601200000877725, 0.016753799998696195];20;3;0.05021570000099018;7.tif;mask.tiff;-0.14;right;['right'];0.49068679999982123;1;0.829;3.1569497999989835;54
107;S11;A;pre;2;59.77600734417098;[0.016484700001456076, 0.017368000000715256, 0.015972799999872223, 0.017111799999838695];11;2;0.05045260000042617;3.tif;mask.tiff;0.14;left;['right'];0.6693950999979279;1;1.019;3.5356289000010293;37
108;S11;A;pre;2;59.77600734417098;[0.015351499998359941, 0.015805499999260064, 0.017237800002476433, 0.01643530000001192];42;1;0.04947860000174842;3.tif;mask.tiff;-0.14;left;['left'];0.578388999998424;1;1.251;3.6779568000019935;20
109;S11;A;pre;2;59.77600734417098;[0.013037900000199443, 0.016721799998776987, 0.017503899998700945, 0.015520500001002802];56;3;0.049746199998480733;2.tif;mask.tiff;-0.14;left;['left'];0.16132140000263462;1;0.866;2.862105200001679;50
110;S11;A;pre;2;59.77600734417098;[0.01688329999888083, 0.016349599998648046, 0.016757600002165418, 0.016062399998190813];22;3;0.049169599999004276;8.tif;mask.tiff;-0.14;right;['right'];0.1649816000026476;1;0.943;2.9476123999993433;56
111;S11;A;pre;2;59.77600734417098;[0.016958600001089508, 0.01578739999968093, 0.017095600000175182, 0.016394999998738058];46;1;0.04927799999859417;8.tif;mask.tiff;-0.14;right;['left'];0.37840009999854374;1;0.724;2.9283869999999297;24
112;S11;A;pre;2;59.77600734417098;[0.015395599999465048, 0.01622539999880246, 0.01735980000012205, 0.016436599998996826];32;5;0.050021799997921335;2.tif;mask.tiff;-0.14;left;['right'];0.5293210000018007;1;1.276;3.645610800002032;82
113;S11;A;pre;2;59.77600734417098;[0.01704020000033779, 0.015848900002310984, 0.017162000000098487, 0.016356799998902716];63;3;0.04936770000131219;8.tif;mask.tiff;0.14;right;['right'];2.2663642000006803;1;1.629;5.74917760000244;57
114;S11;A;pre;2;59.77600734417098;[0.016847399998368928, 0.017073700000764802, 0.01586499999757507, 0.01693820000218693];0;1;0.0498769000005268;2.tif;mask.tiff;-0.14;left;['left'];0.8208427000026859;1;0.841;3.503768400001718;18
115;S11;A;pre;2;59.77600734417098;[0.01626340000075288, 0.016920699999900535, 0.01684009999735281, 0.016434700002719183];70;4;0.050195499999972526;8.tif;mask.tiff;-0.14;right;['right'];0.1755766999995103;1;0.97;2.991900100001658;72
116;S11;A;pre;2;59.77600734417098;[0.017283900000620633, 0.01619359999676817, 0.016777600001660176, 0.016519000000698725];94;3;0.04949019999912707;blank.tiff;mask.tiff;-0.14;a;['right'];0.4841813999992155;1;0.896;3.217304599998897;48
117;S11;A;pre;2;59.77600734417098;[0.01649320000069565, 0.017199000001710374, 0.016133699999045348, 0.01658559999850695];89;5;0.04991829999926267;blank.tiff;mask.tiff;0.14;a;['left'];0.36025420000078157;1;0.784;2.992778499999986;81
118;S11;A;pre;2;59.77600734417098;[0.01687079999828711, 0.017177300000184914, 0.01580870000179857, 0.017152899999928195];13;2;0.05013890000191168;7.tif;mask.tiff;0.14;right;['right'];0.5620611999984249;1;1.038;3.4421798000003037;39
119;S11;A;pre;2;59.77600734417098;[0.016390199998568278, 0.016277500002615852, 0.016777599998022197, 0.016255800001090392];78;5;0.04931090000172844;8.tif;mask.tiff;-0.14;right;['right'];0.2075046999998449;1;0.893;2.941360699998768;88
120;S11;A;pre;2;59.77600734417098;[0.016346699998393888, 0.017078400000173133, 0.0169917000021087, 0.016524599999684142];71;4;0.050594700001965975;8.tif;mask.tiff;0.14;right;['right'];0.5425733999982185;1;1.438;3.8259126000011747;73
121;S11;A;pre;2;59.77600734417098;[0.016905599997699028, 0.016567499998927815, 0.016337200002453756, 0.01675289999911911];54;2;0.04965760000050068;8.tif;mask.tiff;-0.14;right;['right'];0.4477593999981764;1;1.652;3.9477678000002925;40
122;S11;A;pre;2;59.77600734417098;[0.016635100000712555, 0.017041099999914877, 0.016465100001369137, 0.016915100000915118];12;2;0.05042130000219913;7.tif;mask.tiff;-0.14;right;['left'];0.40997839999909047;1;0.926;3.1764885999982653;38
123;S11;A;pre;2;59.77600734417098;[0.011202699999557808, 0.016817100000480423, 0.01692229999753181, 0.016592100000707433];43;1;0.050331499998719664;3.tif;mask.tiff;0.14;left;['right'];0.4346802000000025;1;0.978;3.2676460000002407;21
124;S11;A;pre;2;59.77600734417098;[0.016966999999567633, 0.015890200000285404, 0.017324700002063764, 0.016220800000155577];36;5;0.049435700002504745;7.tif;mask.tiff;-0.14;right;['right'];2.4441365000020596;1;1.121;5.4093078000005335;86
125;S11;A;pre;2;59.77600734417098;[0.01590619999842602, 0.016579499999352265, 0.016745799999625888, 0.016514000002644025];9;2;0.04983930000162218;2.tif;mask.tiff;0.14;left;['left'];0.6868393000004289;1;0.854;3.436898199997813;35
126;S11;A;pre;2;59.77600734417098;[0.010890400000789668, 0.01627319999897736, 0.01670440000089002, 0.016656100000545848];37;5;0.04963370000041323;7.tif;mask.tiff;0.14;right;['left'];0.732514600000286;1;0.969;3.5490449000026274;87
127;S11;A;pre;2;59.77600734417098;[0.01670409999860567, 0.01652960000137682, 0.016645499999867752, 0.01647229999798583];30;4;0.0496473999992304;8.tif;mask.tiff;-0.14;right;['left'];0.3816421999981685;1;0.868;3.081379499999457;72
128;S11;A;pre;2;59.77600734417098;[0.01657089999935124, 0.016837700000905897, 0.01724380000086967, 0.015739200000098208];59;3;0.049820700001873774;3.tif;mask.tiff;0.14;left;['right'];4.611122400001477;1;0.93;7.376865599999292;53
129;S11;A;pre;2;59.77600734417098;[0.0161593000011635, 0.01646189999883063, 0.015815499999007443, 0.016929700002947357];25;4;0.04920710000078543;2.tif;mask.tiff;0.14;left;['left'];0.26347810000152094;1;0.911;3.013322700000572;67
130;S11;A;pre;2;59.77600734417098;[0.016830799999297597, 0.016470300000946736, 0.01678610000089975, 0.0164504999993369];45;1;0.049706900001183385;7.tif;mask.tiff;0.14;right;['left'];0.5813696000004711;1;1.188;3.6153503000023193;23
131;S11;A;pre;2;59.77600734417098;[0.016750899998442037, 0.016819799999211682, 0.01668920000156504, 0.016616199998679804];68;4;0.05012519999945653;7.tif;mask.tiff;-0.14;right;['left'];0.5408152000018163;1;0.974;3.3734560000011697;70
132;S11;A;pre;2;59.77600734417098;[0.016018700000131503, 0.016668699998263037, 0.016843000001244945, 0.01655190000019502];57;3;0.050063599999703;2.tif;mask.tiff;0.14;left;['left'];0.21734330000253976;1;0.933;2.983603900000162;51
133;S11;A;pre;2;59.77600734417098;[0.016642999999021413, 0.016315799999574665, 0.017329400001472095, 0.016103499998280313];5;1;0.04974869999932707;7.tif;mask.tiff;0.14;right;['right'];0.5861038999973971;1;0.794;3.2191469999997935;23
134;S11;A;pre;2;59.77600734417098;[0.01323469999988447, 0.016494999999849824, 0.01671629999691504, 0.016596400000707945];77;5;0.04980769999747281;7.tif;mask.tiff;0.14;right;['right'];0.7888334999988729;1;0.762;3.3887546000005386;87
135;S11;A;pre;2;59.77600734417098;[0.016671699999278644, 0.016610999999102205, 0.017059100002370542, 0.016449499998998363];14;2;0.05011960000047111;8.tif;mask.tiff;-0.14;right;['left'];0.4088430999981938;1;0.905;3.158565699999599;40
136;S11;A;pre;2;59.77600734417098;[0.013912300000811229, 0.016685599999618717, 0.016495300002134172, 0.016719899998861365];95;3;0.049900800000614254;blank.tiff;mask.tiff;0.14;a;['right'];0.7066369999993185;0;1.748;4.306586499998957;49
137;S11;A;pre;2;59.77600734417098;[0.013639199998578988, 0.01699210000151652, 0.016587399997661123, 0.016244900001765927];41;1;0.04982440000094357;2.tif;mask.tiff;0.14;left;['left'];0.6584375000020373;1;0.729;3.2246573000011267;19
138;S11;A;pre;2;59.77600734417098;[0.015792899997904897, 0.01745909999954165, 0.01593450000291341, 0.017162199997983407];98;5;0.05055580000043847;blank.tiff;mask.tiff;-0.14;a;['right'];3.7074843000009423;0;0.913;6.457084600002418;80
139;S11;A;pre;2;59.77600734417098;[0.01691439999922295, 0.016457999998237938, 0.016823500001919456, 0.01652789999934612];15;2;0.04980939999950351;8.tif;mask.tiff;0.14;right;['right'];0.3736581000011938;1;0.86;3.073063899999397;41
140;S11;A;pre;2;59.77600734417098;[0.014460399997915374, 0.01632679999966058, 0.01701139999931911, 0.016223500002524815];96;4;0.049561700001504505;blank.tiff;mask.tiff;-0.14;a;['left'];1.4426842000029865;1;1.072;4.358996899998601;64
141;S11;A;pre;2;59.77600734417098;[0.016146300000400515, 0.01645959999950719, 0.01641820000077132, 0.016797500000393484];99;5;0.049675300000671996;blank.tiff;mask.tiff;0.14;a;['right'];0.7684795000022859;0;0.824;3.4340477000005194;81
142;S11;A;pre;2;59.77600734417098;[0.016634899999189656, 0.01652000000103726, 0.016590899998845998, 0.01667250000173226];50;2;0.04978340000161552;3.tif;mask.tiff;-0.14;left;['right'];0.2018078000000969;1;0.816;2.8506774000015866;36
143;S11;A;pre;2;59.77600734417098;[0.01657820000036736, 0.016486900000018068, 0.01680570000098669, 0.016754000000219094];85;3;0.05004660000122385;blank.tiff;mask.tiff;0.14;a;['right'];0.6736850999986927;0;1.18;3.690465600000607;49
144;S11;A;pre;2;59.77600734417098;[0.016782499998953426, 0.016268100000161212, 0.01661959999910323, 0.016235000002779998];1;1;0.04912270000204444;2.tif;mask.tiff;0.14;left;['right'];0.36049239999920246;1;1.015;3.2101948999988963;19
145;S11;A;pre;2;59.77600734417098;[0.01695549999931245, 0.01649130000078003, 0.017273400000703987, 0.01606319999700645];61;3;0.049827899998490466;7.tif;mask.tiff;0.14;right;['right'];0.27349660000254516;1;0.824;2.939627700001438;55
146;S11;A;pre;2;59.77600734417098;[0.01661719999901834, 0.01627540000117733, 0.01675460000114981, 0.016431299998657778];87;4;0.04946130000098492;blank.tiff;mask.tiff;0.14;a;['right'];0.37106629999834695;0;1.083;3.303861100001086;65
147;S11;A;pre;2;59.77600734417098;[0.01629730000058771, 0.01642159999755677, 0.016918600002099993, 0.01611599999887403];18;3;0.04945619999853079;3.tif;mask.tiff;-0.14;left;['right'];1.052406200000405;1;1.197;4.101696000001539;52
148;S11;A;pre;2;59.77600734417098;[0.013663699999597156, 0.016679200001817662, 0.01639950000026147, 0.016806399999040877];65;4;0.04988510000112001;2.tif;mask.tiff;0.14;left;['left'];0.6243472999994992;1;1.445;3.9076768000013544;67
149;S11;A;pre;2;59.77600734417098;[0.01747409999734373, 0.015819800002645934, 0.0170308999986446, 0.01679839999997057];66;4;0.049649100001261104;3.tif;mask.tiff;-0.14;left;['left'];0.38143359999958193;1;1.251;3.480953199999931;68
150;S11;A;pre;2;59.77600734417098;[0.015441600000485778, 0.01679330000115442, 0.01641160000144737, 0.016672099998686463];26;4;0.04987700000128825;3.tif;mask.tiff;-0.14;left;['left'];0.8377392000002146;1;0.814;3.487984700001107;68
151;S11;A;pre;2;59.77600734417098;[0.01514590000078897, 0.01676690000022063, 0.01653910000095493, 0.016606999997748062];28;4;0.049912999998923624;7.tif;mask.tiff;-0.14;right;['left'];2.1445195999986026;1;0.748;4.727027900000394;70
152;S11;A;pre;2;59.77600734417098;[0.004729700001917081, 0.016148299997439608, 0.016600700000708457, 0.017113400001107948];3;1;0.04986239999925601;3.tif;mask.tiff;0.14;left;['right'];0.747374900001887;0;4.55;7.163482299998577;21
153;S11;A;pre;2;59.77600734417098;[0.019482299998344388, 0.016257999999652384, 0.016978999999992084, 0.01661940000121831];91;1;0.04985640000086278;blank.tiff;mask.tiff;0.14;a;['left'];0.34165109999958077;0;0.745;2.9907829000003403;17
154;S11;A;pre;2;59.77600734417098;[0.016677800002071308, 0.017217799999343697, 0.015967600000294624, 0.016749399997934233];29;4;0.049934799997572554;7.tif;mask.tiff;0.14;right;['right'];0.18608040000253823;1;0.954;2.9857675999992352;71
155;S11;A;pre;2;59.77600734417098;[0.01701830000092741, 0.016625899999780813, 0.0167914000012388, 0.016468699999677483];84;3;0.049886000000697095;blank.tiff;mask.tiff;-0.14;a;['left'];0.8741792000000714;0;1.031;3.7400906999973813;48
156;S11;A;pre;2;59.77600734417098;[0.01674289999937173, 0.016252199999144068, 0.016667399999278132, 0.016698300001735333];48;2;0.04961790000015753;2.tif;mask.tiff;-0.14;left;['left'];0.2640657000010833;1;1.164;3.264351900001202;34
157;S11;A;pre;2;59.77600734417098;[0.01668930000232649, 0.026744099999632454, 0.006210100000316743, 0.016669699998601573];72;5;0.04962389999855077;2.tif;mask.tiff;-0.14;left;['right'];0.25327570000081323;1;0.879;2.9691875999997137;82
158;S11;A;pre;2;59.77600734417098;[0.015322200000809971, 0.015682199998991564, 0.01762089999829186, 0.016317800000251736];23;3;0.04962089999753516;8.tif;mask.tiff;0.14;right;['right'];0.4974398000013025;1;1.022;7.130997699998261;57
159;S11;A;pre;2;59.77600734417098;[0.016620500002318295, 0.016758599998865975, 0.016752999999880558, 0.016209299999900395];27;4;0.04972089999864693;3.tif;mask.tiff;0.14;left;['left'];0.2586725999972259;1;1.132;3.2253831999987597;69
160;S11;A;pre;2;59.77600734417098;[0.014052099999389611, 0.016555300000618445, 0.01673789999767905, 0.01658039999892935];88;5;0.04987359999722685;blank.tiff;mask.tiff;-0.14;a;['right'];0.16331269999864162;0;1.459;3.4809495999979845;80
161;S11;A;pre;2;59.77600734417098;[0.008840099999360973, 0.01589310000053956, 0.016747199999372242, 0.016676399998686975];52;2;0.04931669999859878;7.tif;mask.tiff;-0.14;right;['right'];0.34937019999779295;1;1.585;3.7821447999995144;38
162;S11;A;pre;2;59.77600734417098;[0.01624910000100499, 0.016613299998425646, 0.01686110000082408, 0.016504200000781566];44;1;0.04997860000003129;7.tif;mask.tiff;-0.14;right;['right'];0.8435270000009041;1;1.003;3.69326170000204;22
163;S11;A;pre;2;59.77600734417098;[0.01691930000015418, 0.016121500000735978, 0.016809099997772137, 0.0172606000014639];35;5;0.050191199999972014;3.tif;mask.tiff;0.14;left;['left'];6.233986899998854;1;1.296;9.366738000000623;85
164;S11;A;pre;2;59.77600734417098;[0.015108899999177083, 0.016497900000103982, 0.01642319999882602, 0.01625920000151382];67;4;0.04918030000044382;3.tif;mask.tiff;0.14;left;['left'];0.4525110000031418;1;0.914;3.2021366999979364;69
165;S11;A;pre;2;59.77600734417098;[0.009081899999728194, 0.0168085000004794, 0.01648580000255606, 0.01606569999785279];19;3;0.04936000000088825;3.tif;mask.tiff;0.14;left;['right'];1.6754899000006844;1;0.831;4.35833300000013;53
166;S11;A;pre;2;59.77600734417098;[0.017617400000744965, 0.01608759999726317, 0.01670910000029835, 0.016353900002286537];62;3;0.049150599999848055;8.tif;mask.tiff;-0.14;right;['left'];0.18248070000117877;1;0.867;2.8820153000015125;56
167;S11;A;pre;2;59.77600734417098;[0.016704999998182757, 0.016803800001071068, 0.016439600000012433, 0.016855599998962134];51;2;0.050099000000045635;3.tif;mask.tiff;0.14;left;['right'];1.4594613999979629;1;1.282;4.575484699998924;37
168;S11;A;pre;2;59.77600734417098;[0.017934499999682885, 0.013077600000542589, 0.016270699998131022, 0.01668749999953434];90;1;0.04603579999820795;blank.tiff;mask.tiff;-0.14;a;['left'];0.36621889999878476;1;1.534;3.7323622000003525;16
169;S11;A;pre;2;59.77600734417098;[0.017168200000014622, 0.016685200000210898, 0.015938399999868125, 0.016741499999625375];60;3;0.0493650999997044;7.tif;mask.tiff;-0.14;right;['right'];0.2526873999995587;1;1.118;3.2190869999976712;54
170;S11;A;pre;2;59.77600734417098;[0.016785499999969034, 0.01663389999885112, 0.016586599998845486, 0.01671379999970668];17;3;0.049934299997403286;2.tif;mask.tiff;0.14;left;['left'];0.16973109999889857;1;0.758;2.7695373999995354;51
171;S11;A;pre;2;59.77600734417098;[0.012697900001512608, 0.01713229999950272, 0.016855300000315765, 0.016168399997695815];82;2;0.0501559999975143;blank.tiff;mask.tiff;-0.14;a;['right'];0.18919060000189347;0;0.756;2.7894612999989477;32
172;S11;A;pre;2;59.77600734417098;[0.016566900001635076, 0.01657540000087465, 0.0169144999999844, 0.01647689999663271];8;2;0.04996679999749176;2.tif;mask.tiff;-0.14;left;['right'];0.20946530000219354;1;1.349;3.391309300001012;34
173;S11;A;pre;2;59.77600734417098;[0.016018000002077315, 0.016470399998070206, 0.016666499999701045, 0.016879600003449013];33;5;0.050016500001220265;2.tif;mask.tiff;0.14;left;['left'];0.6678390999986732;1;0.934;3.450731700002507;83
174;S11;A;pre;2;59.77600734417098;[0.017034299999068025, 0.016701099997590063, 0.016691400000127032, 0.01663180000105058];40;1;0.050024299998767674;2.tif;mask.tiff;-0.14;left;['right'];1.6277334000005794;1;1.118;4.593854400001874;18
175;S11;A;pre;2;59.77600734417098;[0.016211999998631654, 0.01659490000020014, 0.01667290000114008, 0.016622899998765206];53;2;0.049890700000105426;7.tif;mask.tiff;0.14;right;['right'];0.3167805999983102;1;0.963;3.11651449999772;39
176;S11;A;pre;2;59.77600734417098;[0.016517100000783103, 0.016778500001237262, 0.01679349999903934, 0.01673750000190921];10;2;0.050309500002185814;3.tif;mask.tiff;-0.14;left;['right'];0.35521150000204216;1;1.359;3.554983899997751;36
177;S11;A;pre;2;59.77600734417098;[0.0167451000015717, 0.016511999998328974, 0.01653459999943152, 0.016849399999046];83;2;0.049895999996806495;blank.tiff;mask.tiff;0.14;a;['right'];0.1883676999968884;1;0.976;3.0043225000008533;33
178;S11;A;pre;2;59.77600734417098;[0.016727099999116035, 0.016574400000536116, 0.016642999999021413, 0.016613100000540726];93;2;0.049830500000098255;blank.tiff;mask.tiff;0.14;a;['right'];0.7190097000020614;0;0.966;3.519213800002035;33
179;S11;A;pre;2;59.77600734417098;[0.01008200000069337, 0.01681299999836483, 0.01659980000113137, 0.016480300000694115];38;5;0.049893100000190316;8.tif;mask.tiff;-0.14;right;['right'];0.18019769999955315;1;1.168;3.2134719000023324;88
180;S11;A;pre;2;59.77600734417098;[0.016738599999371218, 0.017129199997725664, 0.015962200002832105, 0.016521599998668535];76;5;0.049612999999226304;7.tif;mask.tiff;-0.14;right;['right'];0.3463615000000573;1;0.855;3.046297199998662;86
181;S11;A;pre;2;59.77600734417098;[0.016470700000354555, 0.01645990000179154, 0.016338199999154313, 0.016884000000572996];80;1;0.04968210000151885;blank.tiff;mask.tiff;-0.14;a;['right'];0.31340370000179973;0;1.048;3.1959496999988914;16
182;S11;A;pre;2;59.77600734417098;[0.016891600000235485, 0.01668710000012652, 0.016873900000064168, 0.01645210000060615];79;5;0.05001310000079684;8.tif;mask.tiff;0.14;right;['right'];0.29915230000187876;1;1.08;3.2148520999980974;89
183;S11;A;pre;2;59.77600734417098;[0.01686369999879389, 0.016277599999739323, 0.016829200001666322, 0.016385999999329215];31;4;0.04949280000073486;8.tif;mask.tiff;0.14;right;['right'];0.2202889000000141;0;1.676;3.7366741000005277;73
184;S11;A;pre;2;59.77600734417098;[0.016634999999951106, 0.016254400001344038, 0.016840799999044975, 0.01674799999818788];24;4;0.04984319999857689;2.tif;mask.tiff;-0.14;left;['right'];0.6730512999965867;1;1.072;3.5893108999989636;66
185;S11;A;pre;2;59.77600734417098;[0.016719899998861365, 0.016238000000157626, 0.01681319999988773, 0.016850100000738166];69;4;0.04990130000078352;7.tif;mask.tiff;0.14;right;['right'];0.42803529999946477;1;1.887;4.160558700001275;71
186;S11;A;pre;2;59.77600734417098;[0.016768699999374803, 0.01677709999785293, 0.01636970000254223, 0.016455799999675946];58;3;0.049602600000071106;3.tif;mask.tiff;-0.14;left;['left'];0.1996290000024601;1;1.09;3.1325307999977667;52
187;S11;A;pre;2;59.77600734417098;[0.013003600000956794, 0.01733529999910388, 0.015562900000077207, 0.017159300001367228];92;2;0.050057500000548316;blank.tiff;mask.tiff;-0.14;a;['right'];0.13205350000134786;1;1.006;3.015198600001895;32
188;S11;A;pre;2;59.77600734417098;[0.016637500000797445, 0.01683699999921373, 0.016535599999770056, 0.016593799999100156];16;3;0.049966399998083944;2.tif;mask.tiff;-0.14;left;['left'];0.41134190000229864;1;0.774;3.044069200001104;50
189;S11;A;pre;2;59.77600734417098;[0.016281500000332016, 0.016534200000023702, 0.016734599998017075, 0.01633130000118399];86;4;0.04960009999922477;blank.tiff;mask.tiff;-0.14;a;['left'];0.2458392999978969;1;0.812;2.895658800000092;64
190;S11;A;pre;2;59.77600734417098;[0.016883600001165178, 0.016957499999989523, 0.016234099999564933, 0.016628699999273522];75;5;0.04982029999882798;3.tif;mask.tiff;0.14;left;['left'];0.3643531999987317;1;1.628;3.8379908999995678;85
191;S11;A;pre;2;59.77600734417098;[0.009395000000949949, 0.0165737999996054, 0.016937600001256214, 0.01666529999783961];21;3;0.050176699998701224;7.tif;mask.tiff;0.14;right;['right'];0.470630899999378;1;0.737;3.0868291999977373;55
192;S11;A;pre;2;59.77600734417098;[0.014181500002450775, 0.016944699997111456, 0.01645980000103009, 0.016825400001835078];64;4;0.050229899999976624;2.tif;mask.tiff;-0.14;left;['left'];0.6084808999985398;1;0.842;3.308647400001064;66
193;S11;A;pre;2;59.77600734417098;[0.009756599996762816, 0.016592200001468882, 0.01645970000026864, 0.016644300001644297];74;5;0.04969620000338182;3.tif;mask.tiff;-0.14;left;['left'];1.0009682000018074;1;0.766;3.650666400000773;84
194;S11;A;pre;2;59.77600734417098;[0.016240499997365987, 0.01665320000029169, 0.016664700000546873, 0.016742200001317542];7;1;0.050060100002156105;8.tif;mask.tiff;0.14;right;['right'];0.24711110000134795;1;0.815;2.8965941999995266;25
195;S11;A;pre;2;59.77600734417098;[0.017012299998896196, 0.01675980000072741, 0.016919900001084898, 0.016712499997083796];47;1;0.0503921999988961;8.tif;mask.tiff;0.14;right;['right'];0.29303190000064205;1;0.841;2.9758757000017795;25
196;S11;A;pre;2;59.77600734417098;[0.015579499999148538, 0.017262200002733152, 0.016756999997596722, 0.016352000002370914];55;2;0.05037120000270079;8.tif;mask.tiff;0.14;right;['right'];0.84448230000271;1;1.528;4.2107861999975285;41
197;S11;A;pre;2;59.77600734417098;[0.016454100001283223, 0.01706729999932577, 0.01609219999954803, 0.01666560000012396];6;1;0.04982509999899776;8.tif;mask.tiff;-0.14;right;['right'];0.22883569999976316;1;0.753;2.8272249000001466;24
198;S11;A;pre;2;59.77600734417098;[0.01618409999719006, 0.016807399999379413, 0.01704280000194558, 0.015858499999012565];4;1;0.04970870000033756;7.tif;mask.tiff;-0.14;right;['left'];0.2147088999990956;1;0.938;2.997308599999087;22
199;S11;A;pre;2;59.77600734417098;[0.015175799999269657, 0.01720009999917238, 0.01731130000189296, 0.01601229999869247];49;2;0.05052369999975781;2.tif;mask.tiff;0.14;left;['right'];0.35079319999931613;1;1.386;3.5831171999998332;35
200;S11;A;pre;3;59.77600734417098;[0.014818600000580773, 0.016714600002160296, 0.016693099998519756, 0.01602880000064033];27;4;0.04943650000132038;3.tif;mask.tiff;0.14;left;['left'];1.3038520000009157;1;0.704;3.853134700002556;69
201;S11;A;pre;3;59.77600734417098;[0.016625099997327197, 0.016859900002600625, 0.016584999997576233, 0.01632420000169077];16;3;0.04976910000186763;2.tif;mask.tiff;-0.14;left;['left'];0.6305761999974493;1;1.078;3.546556799999962;50
202;S11;A;pre;3;59.77600734417098;[0.01650859999790555, 0.01693879999947967, 0.016518800002813805, 0.0170189999989816];81;1;0.050476600001275074;blank.tiff;mask.tiff;0.14;a;['right'];0.2607786999978998;0;0.982;3.0785275000016554;17
203;S11;A;pre;3;59.77600734417098;[0.01692399999956251, 0.016355100000509992, 0.016417900002124952, 0.016661199999361997];62;3;0.04943420000199694;8.tif;mask.tiff;-0.14;right;['right'];0.4989299000008032;1;1.066;3.3983029999981227;56
204;S11;A;pre;3;59.77600734417098;[0.017252699999517063, 0.016565099998842925, 0.0169147000015073, 0.016707099999621278];47;1;0.0501868999999715;8.tif;mask.tiff;0.14;right;['right'];0.15906180000092718;1;1.079;3.0749662999987777;25
205;S11;A;pre;3;59.77600734417098;[0.017462100000557257, 0.016168599999218713, 0.017115900001954287, 0.016501800000696676];63;3;0.04978630000186968;8.tif;mask.tiff;0.14;right;['right'];0.13161480000053416;1;0.881;2.8477913000024273;57
206;S11;A;pre;3;59.77600734417098;[0.011615600000368431, 0.016043900002841838, 0.017464399999880698, 0.016424299999926006];22;3;0.04993260000264854;8.tif;mask.tiff;-0.14;right;['left'];0.22995289999744273;1;0.785;2.8797548999973515;56
207;S11;A;pre;3;59.77600734417098;[0.015481200000067474, 0.017403999998350628, 0.016402600002038525, 0.016502200000104494];77;5;0.05030880000049365;7.tif;mask.tiff;0.14;right;['right'];0.18700300000273273;1;0.869;2.9032213000027696;87
208;S11;A;pre;3;59.77600734417098;[0.01688329999888083, 0.016886599998542806, 0.016320000002451707, 0.016963899997790577];53;2;0.05017049999878509;7.tif;mask.tiff;0.14;right;['right'];0.3165025999987847;1;0.798;2.9490476999999373;39
209;S11;A;pre;3;59.77600734417098;[0.015976799997588387, 0.016964200000074925, 0.01671100000021397, 0.016666899999108864];35;5;0.05034209999939776;3.tif;mask.tiff;0.14;left;['left'];0.18231490000107442;1;0.834;2.8657466000004206;85
210;S11;A;pre;3;59.77600734417098;[0.010964299999614013, 0.017201599999680184, 0.016261700002360158, 0.01738359999944805];82;2;0.05084690000148839;blank.tiff;mask.tiff;-0.14;a;['right'];0.7979272000011406;0;0.829;3.4639538999981596;32
211;S11;A;pre;3;59.77600734417098;[0.01691940000091563, 0.016266700000414858, 0.016784499999630498, 0.016929600002185907];37;5;0.04998080000223126;7.tif;mask.tiff;0.14;right;['right'];0.33998760000031325;1;1.022;3.2067902000017057;87
212;S11;A;pre;3;59.77600734417098;[0.01669009999750415, 0.01652280000052997, 0.017433100001653656, 0.015870600000198465];97;4;0.04982650000238209;blank.tiff;mask.tiff;0.14;a;['right'];0.26170400000046357;1;0.897;2.994506700000784;65
213;S11;A;pre;3;59.77600734417098;[0.016216500000155065, 0.01713699999891105, 0.017037400000845082, 0.015800699999090284];4;1;0.04997509999884642;7.tif;mask.tiff;-0.14;right;['left'];0.15397690000099828;1;0.811;2.804263900001388;22
214;S11;A;pre;3;59.77600734417098;[0.01575609999781591, 0.016908800000237534, 0.01607470000089961, 0.01690749999761465];19;3;0.049890999998751795;3.tif;mask.tiff;0.14;left;['left'];0.0946775999982492;1;0.73;2.6772042000011425;53
215;S11;A;pre;3;59.77600734417098;[0.01669939999919734, 0.014213500002369983, 0.016200199999730103, 0.017358299999614246];2;1;0.04777200000171433;3.tif;mask.tiff;-0.14;left;['left'];0.19640900000013062;1;1.343;3.379466099999263;20
216;S11;A;pre;3;59.77600734417098;[0.017082200000004377, 0.016165600001841085, 0.016483100000186823, 0.01699679999728687];52;2;0.04964549999931478;7.tif;mask.tiff;-0.14;right;['right'];0.13311539999995148;1;0.999;2.966435199999978;38
217;S11;A;pre;3;59.77600734417098;[0.003759299997909693, 0.01653219999934663, 0.01668480000080308, 0.016777699998783646];79;5;0.049994699998933356;8.tif;mask.tiff;0.14;right;['right'];0.6869603999984975;1;0.851;3.4036959999975807;89
218;S11;A;pre;3;59.77600734417098;[0.016932999998971354, 0.016284100001939805, 0.016705999998521293, 0.01674540000021807];20;3;0.04973550000067917;7.tif;mask.tiff;-0.14;right;['right'];0.1484110999990662;1;0.742;2.731740000002901;54
219;S11;A;pre;3;59.77600734417098;[0.01675289999911911, 0.016634700001304736, 0.01688569999896572, 0.016366399999242276];45;1;0.04988679999951273;7.tif;mask.tiff;0.14;right;['right'];0.5787964999981341;1;0.84;3.261522299999342;23
220;S11;A;pre;3;59.77600734417098;[0.016666899999108864, 0.016558499999518972, 0.01658599999791477, 0.016724500001146225];48;2;0.049868999998579966;2.tif;mask.tiff;-0.14;left;['left'];0.5555345000029774;1;0.886;3.3048748999972304;34
221;S11;A;pre;3;59.77600734417098;[0.016910500002268236, 0.01638749999983702, 0.016511599998921156, 0.01682230000005802];90;1;0.049721399998816196;blank.tiff;mask.tiff;-0.14;a;['right'];0.4796249999999418;0;1.093;3.4130035000016505;16
222;S11;A;pre;3;59.77600734417098;[0.016583799999352777, 0.01692890000049374, 0.01654889999917941, 0.01660220000121626];9;2;0.05008000000088941;2.tif;mask.tiff;0.14;left;['left'];0.45374269999956596;1;0.839;3.213118499999837;35
223;S11;A;pre;3;59.77600734417098;[0.014894800002366537, 0.01669419999961974, 0.017094700000598095, 0.016356899999664165];80;1;0.050145799999882;blank.tiff;mask.tiff;-0.14;a;['right'];0.41276210000069113;0;1.265;3.528955000001588;16
224;S11;A;pre;3;59.77600734417098;[0.016593399999692338, 0.016630999998596963, 0.016242800000327406, 0.016957200001343153];36;5;0.04983100000026752;7.tif;mask.tiff;-0.14;right;['right'];0.6243964999994205;1;0.881;3.340168900002027;86
225;S11;A;pre;3;59.77600734417098;[0.013997800000652205, 0.01589619999867864, 0.01680839999971795, 0.01674280000224826];92;2;0.04944740000064485;blank.tiff;mask.tiff;-0.14;a;['left'];0.525104200001806;1;1.294;3.6576625000016065;32
226;S11;A;pre;3;59.77600734417098;[0.016886000001250068, 0.016594000000623055, 0.016761200000473764, 0.015703400000347756];73;5;0.049058600001444574;2.tif;mask.tiff;0.14;left;['right'];0.4642381000012392;1;1.209;3.5140629000015906;83
227;S11;A;pre;3;59.77600734417098;[0.016018999998777872, 0.017271100001380546, 0.016731700001400895, 0.016487499997310806];64;4;0.05049030000009225;2.tif;mask.tiff;-0.14;left;['right'];0.17357039999842527;1;0.858;2.8735497999987274;66
228;S11;A;pre;3;59.77600734417098;[0.01692150000235415, 0.01624439999795868, 0.016461200000776444, 0.016808699998364318];21;3;0.04951429999709944;7.tif;mask.tiff;0.14;right;['right'];0.873902100000123;1;0.855;3.573582000000897;55
229;S11;A;pre;3;59.77600734417098;[0.01656150000053458, 0.01642310000170255, 0.016732299998693634, 0.016897199999220902];43;1;0.05005259999961709;3.tif;mask.tiff;0.14;left;['right'];1.6406286999990698;1;1.192;4.689926999999443;21
230;S11;A;pre;3;59.77600734417098;[0.015943999998853542, 0.01663399999961257, 0.01661460000104853, 0.016449099999590544];26;4;0.04969770000025164;3.tif;mask.tiff;-0.14;left;['left'];0.23636879999685334;1;1.055;3.135883900002227;68
231;S11;A;pre;3;59.77600734417098;[0.01598310000190395, 0.016932700000324985, 0.016524399998161243, 0.016675900002155686];68;4;0.050133000000641914;7.tif;mask.tiff;-0.14;right;['right'];0.13493989999915357;1;0.886;2.8680112000001827;70
232;S11;A;pre;3;59.77600734417098;[0.016344699997716816, 0.0163170000014361, 0.017088299999159062, 0.01638739999907557];6;1;0.04979269999967073;8.tif;mask.tiff;-0.14;right;['right'];0.5897761000014725;1;0.689;3.1226688000024296;24
233;S11;A;pre;3;59.77600734417098;[0.01695059999838122, 0.016393800000514602, 0.016641800000797957, 0.016494899999088375];41;1;0.049530500000400934;2.tif;mask.tiff;0.14;left;['left'];0.20926739999777055;1;0.93;2.9759931999979017;19
234;S11;A;pre;3;59.77600734417098;[0.016292200001771562, 0.017254899998079054, 0.016423700002633268, 0.016649599998345366];83;2;0.05032819999905769;blank.tiff;mask.tiff;0.14;a;['right'];0.7501284999998461;1;0.907;3.499652899998182;33
235;S11;A;pre;3;59.77600734417098;[0.016784700001153396, 0.016161200001079123, 0.017099099997722078, 0.01641129999916302];89;5;0.04967159999796422;blank.tiff;mask.tiff;0.14;a;['right'];0.5900884000002407;1;0.864;3.2894156000002113;81
236;S11;A;pre;3;59.77600734417098;[0.016064899999037152, 0.016352400001778733, 0.016470300000946736, 0.016582699998252792];59;3;0.04940540000097826;3.tif;mask.tiff;0.14;left;['left'];0.14484789999914938;1;0.838;2.8280190999976185;53
237;S11;A;pre;3;59.77600734417098;[0.013848300000972813, 0.016078500000730855, 0.01682739999887417, 0.016487400000187336];39;5;0.04939329999979236;8.tif;mask.tiff;0.14;right;['right'];0.6189585000029183;1;0.749;3.2017500000001746;89
238;S11;A;pre;3;59.77600734417098;[0.01683009999760543, 0.016383199999836506, 0.016565200003242353, 0.01714699999865843];44;1;0.05009540000173729;7.tif;mask.tiff;-0.14;right;['right'];0.4712695000016538;1;1.047;3.3540409000015643;22
239;S11;A;pre;3;59.77600734417098;[0.0164812000002712, 0.01727069999833475, 0.016197600001760293, 0.017031200000928948];40;1;0.05049950000102399;2.tif;mask.tiff;-0.14;left;['left'];8.051554200003011;1;0.861;10.751432699998986;18
240;S11;A;pre;3;59.77600734417098;[0.016884399999980815, 0.016062300001067342, 0.016920199999731267, 0.016617500001302687];42;1;0.0496000000021013;3.tif;mask.tiff;-0.14;left;['left'];0.3254637999998522;1;1.148;3.3075580000004265;20
241;S11;A;pre;3;59.77600734417098;[0.016840100000990788, 0.016298899998218985, 0.01663620000181254, 0.016877499998372514];33;5;0.04981259999840404;2.tif;mask.tiff;0.14;left;['left'];0.19848500000080094;1;0.814;2.8647051000007195;83
242;S11;A;pre;3;59.77600734417098;[0.016702600001735846, 0.01691460000074585, 0.01660479999918607, 0.01622240000142483];15;2;0.04974180000135675;8.tif;mask.tiff;0.14;right;['right'];0.8359043999989808;1;1.019;3.718646600002103;41
243;S11;A;pre;3;59.77600734417098;[0.016630899997835513, 0.0166148999996949, 0.01666520000071614, 0.016354200000932906];25;4;0.049634300001343945;2.tif;mask.tiff;0.14;left;['left'];0.5691100999974879;1;0.891;3.3020042999996804;67
244;S11;A;pre;3;59.77600734417098;[0.016353999999410007, 0.016956600000412436, 0.01641839999865624, 0.016659900000377093];91;1;0.05003489999944577;blank.tiff;mask.tiff;0.14;a;['right'];1.2962492999977258;0;1.248;4.379232499999489;17
245;S11;A;pre;3;59.77600734417098;[0.016793099999631522, 0.016630300000542775, 0.016412900000432273, 0.016487500000948785];7;1;0.04953070000192383;8.tif;mask.tiff;0.14;right;['right'];0.58426529999997;1;1.041;3.467580000000453;25
246;S11;A;pre;3;59.77600734417098;[0.01700179999897955, 0.016628299999865703, 0.016816100000141887, 0.016673000001901528];14;2;0.05011740000190912;8.tif;mask.tiff;-0.14;right;['left'];3.6699627000016335;0;1.111;6.619216500002949;40
247;S11;A;pre;3;59.77600734417098;[0.017265900001802947, 0.01862729999993462, 0.013548299997637514, 0.017638799999986077];75;5;0.04981439999755821;3.tif;mask.tiff;0.14;left;['left'];0.3172599999998056;1;2.73;4.883355300000403;85
248;S11;A;pre;3;59.77600734417098;[0.016260000000329455, 0.016804099999717437, 0.017111199998907978, 0.016516299998329487];49;2;0.0504315999969549;2.tif;mask.tiff;0.14;left;['left'];0.1878541000005498;1;0.924;2.9538455000001704;35
249;S11;A;pre;3;59.77600734417098;[0.016413199999078643, 0.01623219999964931, 0.017416400001820875, 0.01617880000048899];0;1;0.04982740000195918;2.tif;mask.tiff;-0.14;left;['left'];0.13278690000151983;1;0.686;2.665529800000513;18
250;S11;A;pre;3;59.77600734417098;[0.01670449999801349, 0.01674990000174148, 0.016032399998948677, 0.01731149999977788];18;3;0.050093800000468036;3.tif;mask.tiff;-0.14;left;['right'];0.09959000000162632;1;1.203;3.1490782999972;52
251;S11;A;pre;3;59.77600734417098;[0.01643300000068848, 0.01672079999843845, 0.016692600001988467, 0.016905399999814108];72;5;0.050318800000241026;2.tif;mask.tiff;-0.14;left;['right'];0.4249115000020538;1;1.005;3.274743399997533;82
252;S11;A;pre;3;59.77600734417098;[0.016461300001537893, 0.01671390000046813, 0.016530999997485196, 0.01666020000266144];8;2;0.049905100000614766;2.tif;mask.tiff;-0.14;left;['left'];0.17401219999737805;1;0.882;2.89003479999883;34
253;S11;A;pre;3;59.77600734417098;[0.01563979999991716, 0.016168300000572344, 0.016378700001951074, 0.016955099999904633];29;4;0.04950210000242805;7.tif;mask.tiff;0.14;right;['right'];0.4446451000003435;0;1.462;3.743999199999962;71
254;S11;A;pre;3;59.77600734417098;[0.01675930000055814, 0.016156199999386445, 0.016801400000986177, 0.01637280000068131];10;2;0.04933040000105393;3.tif;mask.tiff;-0.14;left;['right'];0.3009141999973508;1;0.964;3.1009508999995887;36
255;S11;A;pre;3;59.77600734417098;[0.01631170000109705, 0.016358699998818338, 0.016719499999453546, 0.016583600001467858];94;3;0.04966179999973974;blank.tiff;mask.tiff;-0.14;a;['right'];0.2509116000001086;0;1.341;3.4336316000008082;48
256;S11;A;pre;3;59.77600734417098;[0.012352999998256564, 0.01669960000072024, 0.01676969999971334, 0.016485799998918083];58;3;0.04995509999935166;3.tif;mask.tiff;-0.14;left;['right'];0.4488695000000007;0;1.225;3.5160542000012356;52
257;S11;A;pre;3;59.77600734417098;[0.016940699999395292, 0.01609680000183289, 0.01700409999830299, 0.016517100000783103];54;2;0.04961800000091898;8.tif;mask.tiff;-0.14;right;['left'];0.24047050000081072;0;0.998;3.0733929999987595;40
258;S11;A;pre;3;59.77600734417098;[0.01669899999978952, 0.016900899998290697, 0.016133900000568246, 0.01693370000066352];61;3;0.049968499999522464;7.tif;mask.tiff;0.14;right;['right'];0.04615840000042226;1;0.926;2.814778500000102;55
259;S11;A;pre;3;59.77600734417098;[0.01668450000215671, 0.016361099998903228, 0.016963699999905657, 0.016522099998837803];51;2;0.04984689999764669;3.tif;mask.tiff;0.14;left;['left'];0.12635169999703066;1;1.23;3.192257399998198;37
260;S11;A;pre;3;59.77600734417098;[0.016308800000842893, 0.01712509999924805, 0.01616220000141766, 0.016727899997931672];78;5;0.05001519999859738;8.tif;mask.tiff;-0.14;right;['right'];0.22319799999968382;1;0.918;2.9895555000002787;88
261;S11;A;pre;3;59.77600734417098;[0.01743999999962398, 0.015566099998977734, 0.01680570000098669, 0.016692699999111937];17;3;0.04906449999907636;2.tif;mask.tiff;0.14;left;['left'];0.3011103999997431;1;0.993;3.1339228999968327;51
262;S11;A;pre;3;59.77600734417098;[0.01569549999840092, 0.016945200000918703, 0.016582500000367872, 0.01667779999843333];31;4;0.050205499999719905;8.tif;mask.tiff;0.14;right;['right'];0.27665999999953783;0;0.75;2.8596039000003657;73
263;S11;A;pre;3;59.77600734417098;[0.01668730000164942, 0.01659559999825433, 0.016383300000597956, 0.016855199999554316];30;4;0.0498340999984066;8.tif;mask.tiff;-0.14;right;['left'];0.31411519999892334;0;1.165;3.314069299998664;72
264;S11;A;pre;3;59.77600734417098;[0.01384180000241031, 0.017139299998234492, 0.016122400000313064, 0.016972199999145232];3;1;0.05023389999769279;3.tif;mask.tiff;0.14;left;['right'];0.41897839999728603;1;1.096;3.351406000001589;21
265;S11;A;pre;3;59.77600734417098;[0.0172311999995145, 0.016076299998530885, 0.017111299999669427, 0.01647410000077798];57;3;0.04966169999897829;2.tif;mask.tiff;0.14;left;['left'];1.0503064000004088;1;1.052;3.9499524000020756;51
266;S11;A;pre;3;59.77600734417098;[0.012124499997298699, 0.016773000003013294, 0.016697899998689536, 0.0168855000010808];11;2;0.05035640000278363;3.tif;mask.tiff;0.14;left;['right'];1.2383362000000488;1;1.012;4.087934999999561;37
267;S11;A;pre;3;59.77600734417098;[0.016903499999898486, 0.016599100003077183, 0.016032899999117944, 0.017339800000627292];85;3;0.04997180000282242;blank.tiff;mask.tiff;0.14;a;['left'];0.4979496999985713;1;1.098;3.4303542999987258;49
268;S11;A;pre;3;59.77600734417098;[0.016635500000120373, 0.016438400001788978, 0.016763200001150835, 0.017102499998145504];65;4;0.05030410000108532;2.tif;mask.tiff;0.14;left;['right'];0.860651200000575;1;1.042;3.7437298000004375;67
269;S11;A;pre;3;59.77600734417098;[0.01655889999892679, 0.016509799999766983, 0.01685379999980796, 0.016550000000279397];88;5;0.04991359999985434;blank.tiff;mask.tiff;-0.14;a;['right'];1.299914400002308;1;1.223;4.366319299999304;80
270;S11;A;pre;3;59.77600734417098;[0.015856500001973473, 0.016765299998951377, 0.017022500000166474, 0.025263600000471342];1;1;0.059051399999589194;2.tif;mask.tiff;0.14;left;['left'];0.1894955999996455;1;1.072;3.106490699999995;19
271;S11;A;pre;3;59.77600734417098;[0.016487100001540966, 0.01672149999649264, 0.016668400003254646, 0.016168199999810895];95;3;0.04955809999955818;blank.tiff;mask.tiff;0.14;a;['right'];3.0660601999989012;0;1.039;5.949317799997516;49
272;S11;A;pre;3;59.77600734417098;[0.016594199998507975, 0.016901800001505762, 0.016531699999177363, 0.016376100000343286];98;5;0.04980960000102641;blank.tiff;mask.tiff;-0.14;a;['right'];0.6746549999988929;0;2.77;5.290888899999118;80
273;S11;A;pre;3;59.77600734417098;[0.016337199998815777, 0.0168325000013283, 0.0167862000016612, 0.016635599997243844];55;2;0.05025430000023334;8.tif;mask.tiff;0.14;right;['right'];0.19892929999696207;1;1.004;3.0487011000004713;41
274;S11;A;pre;3;59.77600734417098;[0.016606000001047505, 0.016940699999395292, 0.016330899998138193, 0.016751200000726385];86;4;0.05002279999825987;blank.tiff;mask.tiff;-0.14;a;['right'];0.22404660000029253;0;0.797;2.8571475999997347;64
275;S11;A;pre;3;59.77600734417098;[0.01655880000180332, 0.016262499997537816, 0.016714200002752477, 0.01674759999878006];84;3;0.049724299999070354;blank.tiff;mask.tiff;-0.14;a;['right'];0.18593690000125207;0;0.965;2.9852186999996775;48
276;S11;A;pre;3;59.77600734417098;[0.016357300002709962, 0.016572799999266863, 0.016827999999804888, 0.017230099998414516];23;3;0.05063089999748627;8.tif;mask.tiff;0.14;right;['right'];0.05178159999923082;1;1.524;3.4186286000003747;57
277;S11;A;pre;3;59.77600734417098;[0.01677220000055968, 0.016955099999904633, 0.015550500000244938, 0.017092499998398125];96;4;0.049598099998547696;blank.tiff;mask.tiff;-0.14;a;['right'];0.6255184000001464;1;1.043;3.5086851000014576;64
278;S11;A;pre;3;59.77600734417098;[0.01714960000026622, 0.01617370000167284, 0.016700899999705143, 0.016667100000631763];13;2;0.04954170000200975;7.tif;mask.tiff;0.14;right;['left'];0.08593780000228435;1;0.869;2.802183600000717;39
279;S11;A;pre;3;59.77600734417098;[0.016613899999356363, 0.017034000000421656, 0.016410300002462463, 0.016674099999363534];60;3;0.050118400002247654;7.tif;mask.tiff;-0.14;right;['right'];0.385980600000039;0;1.052;3.268884299999627;54
280;S11;A;pre;3;59.77600734417098;[0.015931499998259824, 0.016484300002048258, 0.016616000000794884, 0.01684909999676165];66;4;0.04994939999960479;3.tif;mask.tiff;-0.14;left;['right'];2.3836636999985785;1;2.294;6.516279100000247;68
281;S11;A;pre;3;59.77600734417098;[0.015766699998494005, 0.016920199999731267, 0.01593710000088322, 0.016852799999469426];24;4;0.04971010000008391;2.tif;mask.tiff;-0.14;left;['right'];0.9156531000007817;1;1.538;4.298623900001985;66
282;S11;A;pre;3;59.77600734417098;[0.011452499998995336, 0.016697700000804616, 0.016820900000311667, 0.01750520000132383];56;3;0.05102380000244011;2.tif;mask.tiff;-0.14;left;['left'];0.5144450000007055;1;1.275;3.647846500000014;50
283;S11;A;pre;3;59.77600734417098;[0.01652960000137682, 0.016575199999351753, 0.01700899999923422, 0.016724200002499856];28;4;0.05030840000108583;7.tif;mask.tiff;-0.14;right;['right'];0.5462097999989055;1;0.944;3.3293104999975185;70
284;S11;A;pre;3;59.77600734417098;[0.016225900002609706, 0.01713009999730275, 0.016784499999630498, 0.016454200002044672];99;5;0.05036879999897792;blank.tiff;mask.tiff;0.14;a;['right'];0.20176480000009178;1;1.098;3.134192299999995;81
285;S11;A;pre;3;59.77600734417098;[0.016426899997895816, 0.016521600002306513, 0.016826999999466352, 0.016400599997723475];76;5;0.04974919999949634;7.tif;mask.tiff;-0.14;right;['right'];0.16638329999841517;1;1.02;3.032648099997459;86
286;S11;A;pre;3;59.77600734417098;[0.015074999999342253, 0.016282399999909103, 0.016788299999461742, 0.016450700000859797];12;2;0.04952140000023064;7.tif;mask.tiff;-0.14;right;['right'];0.2237864000016998;1;0.81;2.873278199997003;38
287;S11;A;pre;3;59.77600734417098;[0.015816800001630327, 0.01659809999910067, 0.016957399999228073, 0.016637299999274546];32;5;0.05019279999760329;2.tif;mask.tiff;-0.14;left;['left'];0.5168986999997287;1;1.905;4.282570700001088;82
288;S11;A;pre;3;59.77600734417098;[0.016249700001935707, 0.01666549999936251, 0.016794899998785695, 0.0166456000006292];69;4;0.050105999998777406;7.tif;mask.tiff;0.14;right;['right'];0.1839161999996577;1;1.148;3.166868100001011;71
289;S11;A;pre;3;59.77600734417098;[0.016083499998785555, 0.017390000000887085, 0.01590339999893331, 0.01651260000289767];71;4;0.049806000002718065;8.tif;mask.tiff;0.14;right;['right'];1.0123046999979124;1;0.913;3.7619085000005725;73
290;S11;A;pre;3;59.77600734417098;[0.009270099999412196, 0.016756500001065433, 0.01700640000126441, 0.016081499998108484];87;4;0.04984440000043833;blank.tiff;mask.tiff;0.14;a;['right'];0.8447682999976678;0;1.768;4.4778929999993125;65
291;S11;A;pre;3;59.77600734417098;[0.01648900000145659, 0.016514999999344582, 0.016783499999291962, 0.01630270000168821];34;5;0.04960120000032475;3.tif;mask.tiff;-0.14;left;['left'];0.4588144999979704;1;1.402;3.708084499998222;84
292;S11;A;pre;3;59.77600734417098;[0.01606770000216784, 0.016347099997801706, 0.017256300001463387, 0.01608689999920898];67;4;0.049690299998474075;3.tif;mask.tiff;0.14;left;['right'];6.490396700002748;0;0.671;9.006602599998587;69
293;S11;A;pre;3;59.77600734417098;[0.016000999999960186, 0.01668950000021141, 0.016718299997592112, 0.016540200002054917];38;5;0.04994799999985844;8.tif;mask.tiff;-0.14;right;['right'];0.14122359999964829;1;0.776;2.757587500000227;88
294;S11;A;pre;3;59.77600734417098;[0.01665799999682349, 0.01643020000119577, 0.01692439999897033, 0.016362400001526112];93;2;0.04971700000169221;blank.tiff;mask.tiff;0.14;a;['right'];0.19653610000023036;0;1.171;3.2126193000003695;33
295;S11;A;pre;3;59.77600734417098;[0.016277299997454975, 0.017324500000540866, 0.016482400002132636, 0.016202099999645725];46;1;0.050009000002319226;8.tif;mask.tiff;-0.14;right;['left'];0.3517044000000169;1;0.818;3.0182329999988724;24
296;S11;A;pre;3;59.77600734417098;[0.016008300000976305, 0.016741599996748846, 0.01658080000197515, 0.01659569999901578];50;2;0.04991809999773977;3.tif;mask.tiff;-0.14;left;['right'];0.36890600000333507;1;1.661;3.8679341999995813;36
297;S11;A;pre;3;59.77600734417098;[0.016776000000390923, 0.01719249999950989, 0.016047699999035103, 0.016700899999705143];5;1;0.04994109999825014;7.tif;mask.tiff;0.14;right;['right'];0.6493919999993523;1;0.808;3.2991135000011127;23
298;S11;A;pre;3;59.77600734417098;[0.013911599999119062, 0.01606990000072983, 0.017093299997213762, 0.016881600000488106];70;4;0.0500447999984317;8.tif;mask.tiff;-0.14;right;['left'];0.44487219999791705;1;0.889;3.9608977000025334;72
299;S11;A;pre;3;59.77600734417098;[0.01611560000310419, 0.01613569999972242, 0.01723839999976917, 0.01660999999876367];74;5;0.04998409999825526;3.tif;mask.tiff;-0.14;left;['right'];0.5439847999987251;1;0.939;3.326632799999061;84
300;S11;A;pre;4;59.77600734417098;[0.015949600001476938, 0.01681509999980335, 0.016507100001035724, 0.016738599999371218];58;3;0.05006080000021029;3.tif;mask.tiff;-0.14;left;['right'];0.728322399998433;0;0.821;3.393984800000908;52
301;S11;A;pre;4;59.77600734417098;[0.016260499996860744, 0.01631150000321213, 0.017197099998156773, 0.01635339999847929];91;1;0.049861999999848194;blank.tiff;mask.tiff;0.14;a;['left'];0.2789613000022655;0;1.709;3.8288708000000042;17
302;S11;A;pre;4;59.77600734417098;[0.005763699999079108, 0.016769800000474788, 0.016690000000380678, 0.01616439999997965];70;4;0.04962420000083512;8.tif;mask.tiff;-0.14;right;['right'];0.2044927999995707;1;1.385;3.454104599997663;72
303;S11;A;pre;4;59.77600734417098;[0.017662600002950057, 0.0162053999993077, 0.016520799999852898, 0.016809199998533586];59;3;0.049535399997694185;3.tif;mask.tiff;0.14;left;['left'];0.17105330000049435;1;0.997;3.054034699998738;53
304;S11;A;pre;4;59.77600734417098;[0.016235999999480555, 0.01660249999986263, 0.016926100001001032, 0.016642800001136493];23;3;0.050171400002000155;8.tif;mask.tiff;0.14;right;['left'];0.7265735000000859;1;1.156;3.7264558999995643;57
305;S11;A;pre;4;59.77600734417098;[0.016358699998818338, 0.017264599999180064, 0.016325600001437124, 0.01655680000112625];60;3;0.050147000001743436;7.tif;mask.tiff;-0.14;right;['right'];0.2719533000017691;0;0.857;2.9719919999988633;54
306;S11;A;pre;4;59.77600734417098;[0.016294500001095003, 0.016503999999258667, 0.01691690000006929, 0.016374300001189113];80;1;0.04979520000051707;blank.tiff;mask.tiff;-0.14;a;['right'];0.18483840000044438;0;1.003;3.03428829999757;16
307;S11;A;pre;4;59.77600734417098;[0.0162296000016795, 0.016737199999624863, 0.01632640000025276, 0.01702119999754359];14;2;0.050084799997421214;8.tif;mask.tiff;-0.14;right;['right'];0.6683832999988226;1;1.044;3.551086399998894;40
308;S11;A;pre;4;59.77600734417098;[0.016700300002412405, 0.016026199999032542, 0.016454000000521773, 0.016775000000052387];48;2;0.0492551999996067;2.tif;mask.tiff;-0.14;left;['right'];0.8053282000000763;1;0.916;3.5545104000011634;34
309;S11;A;pre;4;59.77600734417098;[0.0042608000003383495, 0.016543699999601813, 0.016822199999296572, 0.01660500000070897];45;1;0.049970899999607354;7.tif;mask.tiff;0.14;right;['left'];0.15333000000100583;1;1.117;3.135900799999945;23
310;S11;A;pre;4;59.77600734417098;[0.01717089999874588, 0.01602679999996326, 0.016354999999748543, 0.01674500000081025];95;3;0.04912680000052205;blank.tiff;mask.tiff;0.14;a;['left'];0.17284699999800068;1;0.783;2.7902395999990404;49
311;S11;A;pre;4;59.77600734417098;[0.016669300002831733, 0.016485799998918083, 0.016721899999538437, 0.01693100000193226];1;1;0.05013870000038878;2.tif;mask.tiff;0.14;left;['right'];0.5960789999990084;0;1.228;3.662280600001395;19
312;S11;A;pre;4;59.77600734417098;[0.015901300001132768, 0.016647399999783374, 0.01713930000187247, 0.016589199996815296];41;1;0.05037589999847114;2.tif;mask.tiff;0.14;left;['left'];0.34733049999704235;1;0.842;3.031030899997859;19
313;S11;A;pre;4;59.77600734417098;[0.01658289999977569, 0.017058699999324745, 0.016283900000416907, 0.01693399999930989];24;4;0.05027659999905154;2.tif;mask.tiff;-0.14;left;['left'];1.2830290000019886;1;1.054;4.182688599998073;66
314;S11;A;pre;4;59.77600734417098;[0.01635139999780222, 0.016434299999673385, 0.016354200000932906, 0.016823400001158006];55;2;0.0496119000017643;8.tif;mask.tiff;0.14;right;['right'];0.1328442999983963;1;0.691;2.682112899998174;41
315;S11;A;pre;4;59.77600734417098;[0.017700099997455254, 0.016373500002373476, 0.01667989999987185, 0.016407899998739595];96;4;0.04946130000098492;blank.tiff;mask.tiff;-0.14;a;['left'];0.150305400002253;0;0.962;2.9835144999997283;64
316;S11;A;pre;4;59.77600734417098;[0.008135799998854054, 0.016678200001479127, 0.01641380000000936, 0.017027199999574805];46;1;0.05011920000106329;8.tif;mask.tiff;-0.14;right;['right'];0.17806729999938398;0;0.972;2.9952204000001075;24
317;S11;A;pre;4;59.77600734417098;[0.016644400002405746, 0.016749299997172784, 0.017010300001857104, 0.016017999998439336];0;1;0.049777599997469224;2.tif;mask.tiff;-0.14;left;['left'];0.18054029999984778;1;0.947;2.9636181999994733;18
318;S11;A;pre;4;59.77600734417098;[0.016320300001098076, 0.0171081000007689, 0.01624230000015814, 0.020226000000548083];8;2;0.05357640000147512;2.tif;mask.tiff;-0.14;left;['right'];0.19952319999720203;0;0.976;3.0156743000006827;34
319;S11;A;pre;4;59.77600734417098;[0.015805099999852246, 0.01660489999994752, 0.01615999999921769, 0.017438600003515603];66;4;0.05020350000268081;3.tif;mask.tiff;-0.14;left;['left'];0.2874372999976913;1;0.938;3.7532103000012285;68
320;S11;A;pre;4;59.77600734417098;[0.015144099997996818, 0.016407499999331776, 0.016862500000570435, 0.01662880000003497];64;4;0.04989879999993718;2.tif;mask.tiff;-0.14;left;['right'];0.11349770000015269;1;1.239;3.196538200001669;66
321;S11;A;pre;4;59.77600734417098;[0.01650819999849773, 0.0168033000009018, 0.016724400000384776, 0.016503700000612298];13;2;0.050031400001898874;7.tif;mask.tiff;0.14;right;['right'];0.14522869999927934;1;0.755;4.478162199997314;39
322;S11;A;pre;4;59.77600734417098;[0.017375899999024114, 0.01591540000299574, 0.017094599999836646, 0.016368299999157898];79;5;0.04937830000199028;8.tif;mask.tiff;0.14;right;['right'];0.11259009999776026;1;1.108;3.0627800000002026;89
323;S11;A;pre;4;59.77600734417098;[0.016042700000980403, 0.016376399998989655, 0.017442699998355238, 0.01577440000255592];77;5;0.049593499999900814;7.tif;mask.tiff;0.14;right;['right'];0.15865729999859468;1;1.326;3.3248443999982555;87
324;S11;A;pre;4;59.77600734417098;[0.01668960000097286, 0.01667000000088592, 0.016447199999674922, 0.017181600000185426];67;4;0.05029880000074627;3.tif;mask.tiff;0.14;left;['right'];0.22889170000053127;1;0.896;2.961155900000449;69
325;S11;A;pre;4;59.77600734417098;[0.01674309999725665, 0.016673600002832245, 0.01656439999715076, 0.016574299999774667];32;5;0.04981229999975767;2.tif;mask.tiff;-0.14;left;['left'];0.12416740000116988;1;0.845;2.8073315000001458;82
326;S11;A;pre;4;59.77600734417098;[0.012766299998475006, 0.016835900001751725, 0.01679399999920861, 0.01730429999952321];22;3;0.05093420000048354;8.tif;mask.tiff;-0.14;right;['left'];0.9012185999999929;1;1.26;4.001394599999912;56
327;S11;A;pre;4;59.77600734417098;[0.016267499999230495, 0.016196699998545228, 0.016367200001695892, 0.016799299999547657];47;1;0.049363199999788776;8.tif;mask.tiff;0.14;right;['right'];0.3421268999991298;1;3.262;5.441290700000536;25
328;S11;A;pre;4;59.77600734417098;[0.015943999998853542, 0.017202900002303068, 0.016413499997725012, 0.016639200002828147];34;5;0.05025560000285623;3.tif;mask.tiff;-0.14;left;['right'];0.5942174999981944;1;1.088;3.529565699998784;84
329;S11;A;pre;4;59.77600734417098;[0.01647199999933946, 0.016541400000278372, 0.016489800000272226, 0.01701409999805037];10;2;0.05004529999860097;3.tif;mask.tiff;-0.14;left;['right'];0.3791815000004135;1;0.85;3.0789741999979015;36
330;S11;A;pre;4;59.77600734417098;[0.01671619999979157, 0.016582100000960054, 0.016577300000790274, 0.01714219999848865];85;3;0.05030160000023898;blank.tiff;mask.tiff;0.14;a;['right'];0.15635589999874355;0;0.752;2.7562333999994735;49
331;S11;A;pre;4;59.77600734417098;[0.0166045000005397, 0.016975400001683738, 0.01634349999949336, 0.01655879999816534];16;3;0.04987769999934244;2.tif;mask.tiff;-0.14;left;['right'];0.20244240000101854;0;0.948;2.9849629000018467;50
332;S11;A;pre;4;59.77600734417098;[0.015072800000780262, 0.01655659999960335, 0.016659100001561455, 0.016847599999891827];3;1;0.05006330000105663;3.tif;mask.tiff;0.14;left;['right'];0.2680913000003784;0;1.351;3.4675967000002856;21
333;S11;A;pre;4;59.77600734417098;[0.016930199999478646, 0.015939000000798842, 0.016789500001323177, 0.016425099998741644];19;3;0.04915360000086366;3.tif;mask.tiff;0.14;left;['left'];0.14191399999981513;1;0.955;3.5247764000014286;53
334;S11;A;pre;4;59.77600734417098;[0.01546049999888055, 0.016468500001792563, 0.016415399997640634, 0.016719899998861365];11;2;0.04960379999829456;3.tif;mask.tiff;0.14;left;['left'];0.19270889999825158;1;0.776;2.8094990999998117;37
335;S11;A;pre;4;59.77600734417098;[0.016319900001690257, 0.016963899997790577, 0.016343900002539158, 0.016486999997141538];97;4;0.04979479999747127;blank.tiff;mask.tiff;0.14;a;['right'];0.14316749999852618;1;0.922;2.9094612000008055;65
336;S11;A;pre;4;59.77600734417098;[0.01266609999947832, 0.016616499997326173, 0.016679100001056213, 0.01668250000147964];94;3;0.049978099999862025;blank.tiff;mask.tiff;-0.14;a;['left'];0.4956251000003249;1;1.005;3.344596700000693;48
337;S11;A;pre;4;59.77600734417098;[0.016887199999473523, 0.016264500001852866, 0.016882699997950112, 0.016707400001905626];81;1;0.049854600001708604;blank.tiff;mask.tiff;0.14;a;['right'];0.2980016000001342;0;0.826;2.9640454999971553;17
338;S11;A;pre;4;59.77600734417098;[0.016366399999242276, 0.01683269999921322, 0.016778500001237262, 0.01670440000089002];65;4;0.0503156000013405;2.tif;mask.tiff;0.14;left;['left'];0.1877327999973204;1;0.89;2.920225499998196;67
339;S11;A;pre;4;59.77600734417098;[0.016912600000068778, 0.01668680000148015, 0.016305400000419468, 0.016390999997383915];76;5;0.049383199999283534;7.tif;mask.tiff;-0.14;right;['right'];0.36784609999813256;1;2.301;4.517390999997588;86
340;S11;A;pre;4;59.77600734417098;[0.01300450000053388, 0.016758099998696707, 0.016930199999478646, 0.016797000000224216];20;3;0.05048529999839957;7.tif;mask.tiff;-0.14;right;['left'];0.12105890000020736;1;0.87;2.837007599999197;54
341;S11;A;pre;4;59.77600734417098;[0.012689500003034482, 0.017038799996953458, 0.01598030000241124, 0.016998099999909755];29;4;0.05001719999927445;7.tif;mask.tiff;0.14;right;['right'];0.2100341000004846;1;0.97;3.025856100000965;71
342;S11;A;pre;4;59.77600734417098;[0.016939299999648938, 0.016045399999711663, 0.01644029999806662, 0.01707410000017262];92;2;0.049559799997950904;blank.tiff;mask.tiff;-0.14;a;['left'];0.22355679999964195;1;1.103;3.1733217000000877;32
343;S11;A;pre;4;59.77600734417098;[0.015862800002651056, 0.01673599999776343, 0.01633109999966109, 0.0166919000002963];56;3;0.04975899999772082;2.tif;mask.tiff;-0.14;left;['left'];0.20404599999892525;1;0.87;2.920636900002137;50
344;S11;A;pre;4;59.77600734417098;[0.016941500001848908, 0.016310499999235617, 0.016555700000026263, 0.01658319999842206];33;5;0.04944939999768394;2.tif;mask.tiff;0.14;left;['right'];0.16044350000083796;1;1.314;3.310319000000163;83
345;S11;A;pre;4;59.77600734417098;[0.01676210000005085, 0.016180200000235345, 0.016582399999606423, 0.01668739999877289];88;5;0.04944999999861466;blank.tiff;mask.tiff;-0.14;a;['right'];0.9427414999991015;0;0.734;3.5255675000007614;80
346;S11;A;pre;4;59.77600734417098;[0.017073699997126823, 0.015887300000031246, 0.01671570000326028, 0.016834299996844493];98;5;0.04943730000013602;blank.tiff;mask.tiff;-0.14;a;['right'];0.1870281999981671;0;0.887;2.920422999999573;80
347;S11;A;pre;4;59.77600734417098;[0.016578700000536628, 0.016998799997963943, 0.01666029999978491, 0.016145699999469798];52;2;0.04980479999721865;7.tif;mask.tiff;-0.14;right;['left'];0.1251421000015398;1;0.767;2.741935399997601;38
348;S11;A;pre;4;59.77600734417098;[0.016574699999182485, 0.016848300001583993, 0.016451100000267616, 0.0168030999993789];2;1;0.05010250000123051;3.tif;mask.tiff;-0.14;left;['right'];0.30822170000101323;1;1.118;3.2575513000010687;20
349;S11;A;pre;4;59.77600734417098;[0.0170378000002529, 0.016233999998803483, 0.016852900000230875, 0.016518699998414377];18;3;0.049605599997448735;3.tif;mask.tiff;-0.14;left;['right'];0.15200579999873298;1;0.8;2.78540140000041;52
350;S11;A;pre;4;59.77600734417098;[0.007589499997266103, 0.016559300001972588, 0.017119100000854814, 0.016854699999385048];89;5;0.05053310000221245;blank.tiff;mask.tiff;0.14;a;['left'];0.1892797000000428;0;0.883;2.939198200001556;81
351;S11;A;pre;4;59.77600734417098;[0.014340400000946829, 0.016362400001526112, 0.0169967000001634, 0.016006399997422704];43;1;0.04936549999911222;3.tif;mask.tiff;0.14;left;['left'];0.6524164000002202;1;0.694;3.1851700999977766;21
352;S11;A;pre;4;59.77600734417098;[0.016853099998115795, 0.01613760000327602, 0.01736229999733041, 0.0160823000005621];50;2;0.04958220000116853;3.tif;mask.tiff;-0.14;left;['right'];3.173834799999895;1;0.929;5.939591700000165;36
353;S11;A;pre;4;59.77600734417098;[0.016438700000435347, 0.016801900001155445, 0.01626129999931436, 0.016996000002109213];31;4;0.05005920000257902;8.tif;mask.tiff;0.14;right;['left'];0.35312920000069425;1;0.971;3.168747200001235;73
354;S11;A;pre;4;59.77600734417098;[0.016311200000927784, 0.016746299999795156, 0.016504700000950834, 0.01690980000057607];15;2;0.05016080000132206;8.tif;mask.tiff;0.14;right;['right'];0.18415829999867128;1;0.862;2.8838697000028333;41
355;S11;A;pre;4;59.77600734417098;[0.016860799998539733, 0.016797799999039853, 0.016454399999929592, 0.016703500001312932];7;1;0.04995570000028238;8.tif;mask.tiff;0.14;right;['right'];0.4752533000028052;1;1.22;4.041853899998387;25
356;S11;A;pre;4;59.77600734417098;[0.01522810000096797, 0.016679100001056213, 0.016151799998624483, 0.01709140000093612];84;3;0.049922300000616815;blank.tiff;mask.tiff;-0.14;a;['right'];0.15970590000142693;1;0.895;2.909313399999519;48
357;S11;A;pre;4;59.77600734417098;[0.008885100000043167, 0.016547399998671608, 0.016624800002318807, 0.017353600000205915];26;4;0.05052580000119633;3.tif;mask.tiff;-0.14;left;['right'];0.15869999999995343;0;0.755;2.774814799999149;68
358;S11;A;pre;4;59.77600734417098;[0.016966900002444163, 0.016156499998032814, 0.017008200000418583, 0.017186600001878105];4;1;0.0503513000003295;7.tif;mask.tiff;-0.14;right;['right'];0.19339549999858718;1;0.825;2.8591315999983635;22
359;S11;A;pre;4;59.77600734417098;[0.016120500000397442, 0.016682800000126008, 0.01728680000087479, 0.01621339999837801];62;3;0.05018299999937881;8.tif;mask.tiff;-0.14;right;['right'];0.16302269999869168;1;0.738;2.745908499997313;56
360;S11;A;pre;4;59.77600734417098;[0.01656629999706638, 0.01648870000281022, 0.0168543999971007, 0.0165978000004543];35;5;0.04994090000036522;3.tif;mask.tiff;0.14;left;['right'];0.22843199999988428;1;0.825;2.89506160000019;85
361;S11;A;pre;4;59.77600734417098;[0.015139999999519205, 0.016475000000355067, 0.01663149999876623, 0.01658300000053714];6;1;0.04968949999965844;8.tif;mask.tiff;-0.14;right;['right'];0.17591479999828152;1;0.729;2.742467600000964;24
362;S11;A;pre;4;59.77600734417098;[0.016608499998255866, 0.01668240000071819, 0.016913600000407314, 0.016122799999720883];17;3;0.049718800000846386;2.tif;mask.tiff;0.14;left;['right'];0.1675147999994806;1;0.856;2.866900100001658;51
363;S11;A;pre;4;59.77600734417098;[0.015601099999912549, 0.016010399998776847, 0.017358500001137145, 0.015921199999866076];78;5;0.04929009999978007;8.tif;mask.tiff;-0.14;right;['right'];0.24328180000156863;1;1.171;3.760247199999867;88
364;S11;A;pre;4;59.77600734417098;[0.01684420000310638, 0.016642399998090696, 0.01673060000030091, 0.016567400001804344];53;2;0.04994040000019595;7.tif;mask.tiff;0.14;right;['right'];0.21786389999761013;1;0.851;2.917305499999202;39
365;S11;A;pre;4;59.77600734417098;[0.0171422999992501, 0.01634840000042459, 0.01682720000098925, 0.01660469999842462];90;1;0.04978029999983846;blank.tiff;mask.tiff;-0.14;a;['right'];0.19935899999836693;0;0.858;2.899326100003236;16
366;S11;A;pre;4;59.77600734417098;[0.01677160000326694, 0.016831599998113234, 0.01623670000117272, 0.01661429999876418];57;3;0.049682599998050136;2.tif;mask.tiff;0.14;left;['left'];0.26757549999820185;1;0.912;3.0170099999995728;51
367;S11;A;pre;4;59.77600734417098;[0.016101099998195423, 0.01687800000217976, 0.017109699998400174, 0.016260700002021622];87;4;0.050248400002601556;blank.tiff;mask.tiff;0.14;a;['left'];3.604331899998215;0;1.471;6.921020899997529;65
368;S11;A;pre;4;59.77600734417098;[0.01704020000033779, 0.017265900001802947, 0.016146999998454703, 0.016731300001993077];69;4;0.05014420000225073;7.tif;mask.tiff;0.14;right;['right'];0.1965706000009959;0;0.824;2.8630238999976427;71
369;S11;A;pre;4;59.77600734417098;[0.016267499999230495, 0.016913200000999495, 0.01681059999827994, 0.016950200002611382];72;5;0.05067400000189082;2.tif;mask.tiff;-0.14;left;['left'];0.18008669999835547;1;0.625;2.6466040999985125;82
370;S11;A;pre;4;59.77600734417098;[0.016991399999824353, 0.015970199998264434, 0.016604100001131883, 0.016765000000305008];5;1;0.049339299999701325;7.tif;mask.tiff;0.14;right;['right'];0.6427012999993167;0;1.49;3.975039100001595;23
371;S11;A;pre;4;59.77600734417098;[0.01642830000128015, 0.016772799997852417, 0.016681000000971835, 0.01650810000137426];83;2;0.04996190000019851;blank.tiff;mask.tiff;0.14;a;['left'];0.10756380000020727;0;0.714;2.6569668000011006;33
372;S11;A;pre;4;59.77600734417098;[0.01638739999907557, 0.0167141999991145, 0.016524599999684142, 0.016850200001499616];27;4;0.050089000000298256;3.tif;mask.tiff;0.14;left;['right'];0.09997930000099586;1;0.693;2.648883100002422;69
373;S11;A;pre;4;59.77600734417098;[0.013924599999882048, 0.01675450000038836, 0.01659529999960796, 0.0165376999975706];54;2;0.04988749999756692;8.tif;mask.tiff;-0.14;right;['right'];0.1314383999997517;1;1.292;3.280973700002505;40
374;S11;A;pre;4;59.77600734417098;[0.01682290000098874, 0.016371800000342773, 0.016929900000832276, 0.016340099999069935];12;2;0.049641800000244984;7.tif;mask.tiff;-0.14;right;['right'];0.12144400000033784;1;0.735;2.7044771999972;38
375;S11;A;pre;4;59.77600734417098;[0.016243600002781022, 0.016377099997043842, 0.017455299999710405, 0.015993100001651328];61;3;0.049825499998405576;7.tif;mask.tiff;0.14;right;['right'];0.431853999998566;0;1.098;3.364884099999472;55
376;S11;A;pre;4;59.77600734417098;[0.013606000000436325, 0.016543300000193994, 0.016306099998473655, 0.016668200001731748];21;3;0.0495176000003994;7.tif;mask.tiff;0.14;right;['right'];0.06967230000009295;1;0.813;2.719547099997726;55
377;S11;A;pre;4;59.77600734417098;[0.01647400000001653, 0.01663340000231983, 0.01674790000106441, 0.01709389999814448];30;4;0.05047520000152872;8.tif;mask.tiff;-0.14;right;['right'];0.19643870000072639;1;0.968;3.012903800001368;72
378;S11;A;pre;4;59.77600734417098;[0.016529399999853922, 0.01642319999882602, 0.016596400000707945, 0.016817299998365343];86;4;0.04983689999789931;blank.tiff;mask.tiff;-0.14;a;['right'];0.3952744999987772;1;1.03;3.261526500002219;64
379;S11;A;pre;4;59.77600734417098;[0.008619899999757763, 0.01669910000055097, 0.016543899997486733, 0.01660700000138604];49;2;0.049849999999423744;2.tif;mask.tiff;0.14;left;['right'];0.153179299999465;1;0.893;2.8859505000000354;35
380;S11;A;pre;4;59.77600734417098;[0.012781100002030144, 0.016676799998094793, 0.016380799999751616, 0.017007200000080047];28;4;0.05006479999792646;7.tif;mask.tiff;-0.14;right;['right'];0.1916551999966032;1;0.891;2.924780000001192;70
381;S11;A;pre;4;59.77600734417098;[0.016147099999216152, 0.016983400000754045, 0.016393500001868233, 0.017322099996817997];99;5;0.050698999999440275;blank.tiff;mask.tiff;0.14;a;['right'];0.5737985000014305;0;0.885;3.3061226999998325;81
382;S11;A;pre;4;59.77600734417098;[0.016427599999587983, 0.01669469999978901, 0.016696899998351, 0.01629040000261739];74;5;0.0496820000007574;3.tif;mask.tiff;-0.14;left;['left'];0.12791289999950095;1;0.774;2.743703000000096;84
383;S11;A;pre;4;59.77600734417098;[0.014778999997361097, 0.016387400002713548, 0.01629539999703411, 0.016906600001675542];63;3;0.0495894000014232;8.tif;mask.tiff;0.14;right;['right'];0.2968957000011869;1;1.095;3.229323600000498;57
384;S11;A;pre;4;59.77600734417098;[0.01587860000290675, 0.01691219999702298, 0.016517000000021653, 0.01687790000141831];40;1;0.050307099998462945;2.tif;mask.tiff;-0.14;left;['left'];0.15823749999981374;1;1.132;3.12495719999788;18
385;S11;A;pre;4;59.77600734417098;[0.016423900000518188, 0.01669179999953485, 0.016789900000730995, 0.016802199999801815];39;5;0.05028390000006766;8.tif;mask.tiff;0.14;right;['right'];0.439937999999529;1;0.85;3.1229129999992438;89
386;S11;A;pre;4;59.77600734417098;[0.01661189999867929, 0.016647699998429744, 0.016395300001022406, 0.016506600000866456];68;4;0.049549600000318605;7.tif;mask.tiff;-0.14;right;['right'];0.28372250000029453;1;0.872;3.001081400001567;70
387;S11;A;pre;4;59.77600734417098;[0.0165515000007872, 0.016335699998307973, 0.016657699998177122, 0.016867700000148034];75;5;0.04986109999663313;3.tif;mask.tiff;0.14;left;['right'];0.1787795999989612;1;0.73;2.7448526000007405;85
388;S11;A;pre;4;59.77600734417098;[0.014368300002388423, 0.01669899999978952, 0.015919099998427555, 0.017396999999618856];25;4;0.05001509999783593;2.tif;mask.tiff;0.14;left;['left'];0.1990531999981613;1;1.358;3.398531200000434;67
389;S11;A;pre;4;59.77600734417098;[0.016854700003023027, 0.016279499999654945, 0.016928699998970842, 0.0169144999999844];51;2;0.05012269999861019;3.tif;mask.tiff;0.14;left;['left'];0.1831793999990623;1;0.756;2.7825144000016735;37
390;S11;A;pre;4;59.77600734417098;[0.016349200002878206, 0.01687139999921783, 0.01674529999945662, 0.016131899999891175];73;5;0.049748599998565624;2.tif;mask.tiff;0.14;left;['right'];0.31882949999999255;1;1.241;3.4025780000010855;83
391;S11;A;pre;4;59.77600734417098;[0.01658099999986007, 0.01680040000064764, 0.016540299999178387, 0.016859899998962646];37;5;0.050200599998788675;7.tif;mask.tiff;0.14;right;['left'];0.3749434999990626;1;1.079;3.291714499999216;87
392;S11;A;pre;4;59.77600734417098;[0.01671340000029886, 0.016137200000230223, 0.016658699998515658, 0.016818800002511125];36;5;0.049614700001257006;7.tif;mask.tiff;-0.14;right;['left'];0.2433939000002283;1;0.938;3.026202299999568;86
393;S11;A;pre;4;59.77600734417098;[0.0164401000001817, 0.016570699997828342, 0.01712950000001001, 0.0161937000011676];93;2;0.04989389999900595;blank.tiff;mask.tiff;0.14;a;['right'];0.1327227000001585;0;0.739;2.7320439999966766;33
394;S11;A;pre;4;59.77600734417098;[0.016473499999847263, 0.01674569999886444, 0.016192099999898346, 0.017048800000338815];44;1;0.0499865999991016;7.tif;mask.tiff;-0.14;right;['right'];0.44533729999966454;1;0.873;3.1617497999977786;22
395;S11;A;pre;4;59.77600734417098;[0.01683730000149808, 0.016042600000218954, 0.01706489999924088, 0.016354799998225644];42;1;0.04946229999768548;3.tif;mask.tiff;-0.14;left;['left'];0.29488210000272375;1;1.047;3.1781978999970306;20
396;S11;A;pre;4;59.77600734417098;[0.015514200000325218, 0.017479600002843654, 0.015708499999163905, 0.01625430000058259];38;5;0.04944240000259015;8.tif;mask.tiff;-0.14;right;['left'];0.28626319999966654;1;0.915;3.0858250000019325;88
397;S11;A;pre;4;59.77600734417098;[0.016620800000964664, 0.017025499997544102, 0.016407400002208306, 0.01679320000039297];9;2;0.05022610000014538;2.tif;mask.tiff;0.14;left;['left'];0.2119550999996136;1;0.801;2.8444493999995757;35
398;S11;A;pre;4;59.77600734417098;[0.017039300000760704, 0.01681040000039502, 0.016563199998927303, 0.01656600000205799];71;4;0.04993960000138031;8.tif;mask.tiff;0.14;right;['right'];0.11261960000047111;1;0.894;2.8458190000019385;73
399;S11;A;pre;4;59.77600734417098;[0.016433500000857748, 0.01629230000253301, 0.016794600000139326, 0.01646009999967646];82;2;0.049547000002348796;blank.tiff;mask.tiff;-0.14;a;['right'];0.9023978000004718;0;1.739;4.484772200001316;32
