;subject;stim;session;block;frame_rate;frame_int;trial_nb;SOA;real_SOA;target;mask;position;cor_ans;obj_rating;obj_RT;subj_rating;subj_RT;trial_duration;trigger
0;S12;A;pre;1;59.90908197718123;[0.01650990000001684, 0.0163731000000098, 0.017131599999970604, 0.016276600000026065];24;4;0.04978130000000647;2.tif;mask.tiff;-0.14;left;['left'];0.5115175999999906;1;2.051;4.419686800000022;66
1;S12;A;pre;1;59.90908197718123;[0.016940200000021832, 0.016404599999987113, 0.016512799999986782, 0.016833400000052734];88;5;0.04975080000002663;blank.tiff;mask.tiff;-0.14;a;['right'];0.6492261000000212;0;0.704;3.1995008999999754;80
2;S12;A;pre;1;59.90908197718123;[0.008052500000019336, 0.016548199999988356, 0.017139799999995375, 0.015987300000006144];92;2;0.049675299999989875;blank.tiff;mask.tiff;-0.14;a;['right'];0.546237700000006;0;0.862;3.278920800000037;32
3;S12;A;pre;1;59.90908197718123;[0.013587499999971442, 0.01749530000000732, 0.01663050000001931, 0.017045100000018465];44;1;0.051170900000045094;7.tif;mask.tiff;-0.14;right;['right'];0.2898245000000088;1;0.901;3.022933300000034;22
4;S12;A;pre;1;59.90908197718123;[0.016741400000000795, 0.016256200000043464, 0.017032400000005055, 0.016478899999981422];71;4;0.04976750000002994;8.tif;mask.tiff;0.14;right;['right'];0.35644170000000486;0;1.055;3.2566415000000006;73
5;S12;A;pre;1;59.90908197718123;[0.016361300000028223, 0.016343399999982466, 0.01699270000000297, 0.016699399999993148];48;2;0.05003549999997858;2.tif;mask.tiff;-0.14;left;['left'];0.47701870000003055;1;1.649;3.959951100000012;34
6;S12;A;pre;1;59.90908197718123;[0.013913199999990411, 0.016614399999980378, 0.016788099999985207, 0.017329399999994166];85;3;0.05073189999995975;blank.tiff;mask.tiff;0.14;a;['right'];0.5681129000000169;0;0.847;3.252199799999971;49
7;S12;A;pre;1;59.90908197718123;[0.01593910000002552, 0.017576599999983955, 0.016185100000029706, 0.016742799999974523];21;3;0.050504499999988184;7.tif;mask.tiff;0.14;right;['right'];0.3482338000000027;1;0.761;2.9481577000000243;55
8;S12;A;pre;1;59.90908197718123;[0.016853500000024724, 0.017107099999975617, 0.016503199999988283, 0.016408899999987625];46;1;0.050019199999951525;8.tif;mask.tiff;-0.14;right;['right'];0.33918689999995877;1;1.111;3.289342799999986;24
9;S12;A;pre;1;59.90908197718123;[0.013966699999969023, 0.017125899999996363, 0.016220700000019406, 0.01684410000001435];89;5;0.05019070000003012;blank.tiff;mask.tiff;0.14;a;['left'];0.394877699999995;0;0.894;3.1280694000000153;81
10;S12;A;pre;1;59.90908197718123;[0.016720700000007582, 0.01683149999996658, 0.016165000000000873, 0.016563200000007328];99;5;0.04955969999997478;blank.tiff;mask.tiff;0.14;a;['left'];0.42207930000000715;0;0.979;3.2382153000000358;81
11;S12;A;pre;1;59.90908197718123;[0.016865100000018174, 0.016431599999975788, 0.01713280000001305, 0.01719500000001517];63;3;0.05075940000000401;8.tif;mask.tiff;0.14;right;['right'];0.28028960000000325;0;3.5;5.613523999999984;57
12;S12;A;pre;1;59.90908197718123;[0.00450549999999339, 0.01696110000000317, 0.016310799999985193, 0.01665140000000065];38;5;0.04992329999998901;8.tif;mask.tiff;-0.14;right;['right'];0.5772764999999822;0;1.077;3.5095342999999843;88
13;S12;A;pre;1;59.90908197718123;[0.016789399999993293, 0.01650449999999637, 0.016554900000016914, 0.01721879999996645];11;2;0.050278199999979734;3.tif;mask.tiff;0.14;left;['left'];0.31649759999999105;1;0.741;2.89963019999999;37
14;S12;A;pre;1;59.90908197718123;[0.016481499999997595, 0.01676109999999653, 0.016683400000033544, 0.01698310000000447];51;2;0.050427600000034545;3.tif;mask.tiff;0.14;left;['left'];1.5934588999999733;1;0.773;4.209978100000001;37
15;S12;A;pre;1;59.90908197718123;[0.01669600000002447, 0.01723349999997481, 0.015913399999988087, 0.016755700000032903];25;4;0.0499025999999958;2.tif;mask.tiff;0.14;left;['left'];0.22840390000004618;1;0.736;2.811658599999987;67
16;S12;A;pre;1;59.90908197718123;[0.007656700000040928, 0.01728749999995216, 0.016839600000025712, 0.016776699999979883];22;3;0.050903799999957755;8.tif;mask.tiff;-0.14;right;['right'];0.29725359999997636;0;0.705;2.8645539999999983;56
17;S12;A;pre;1;59.90908197718123;[0.017574200000012752, 0.016035299999998642, 0.015621900000041933, 0.017521999999985383];68;4;0.04917920000002596;7.tif;mask.tiff;-0.14;right;['right'];0.2881591999999955;1;0.703;2.838863300000014;70
18;S12;A;pre;1;59.90908197718123;[0.016620999999986452, 0.017421600000034232, 0.01635360000000219, 0.016536099999996168];1;1;0.05031130000003259;2.tif;mask.tiff;0.14;left;['left'];0.2539365000000089;1;1.81;3.9037541999999803;19
19;S12;A;pre;1;59.90908197718123;[0.016953299999954652, 0.016910999999993237, 0.016357600000048933, 0.01660909999998239];45;1;0.04987770000002456;7.tif;mask.tiff;0.14;right;['right'];0.35904809999999543;1;1.054;3.9260041;23
20;S12;A;pre;1;59.90908197718123;[0.01633270000002085, 0.016490599999997357, 0.016712100000006558, 0.01673399999998537];32;5;0.04993669999998929;2.tif;mask.tiff;-0.14;left;['left'];0.3739219999999932;1;1.265;3.4737326000000053;82
21;S12;A;pre;1;59.90908197718123;[0.017016300000022966, 0.01689669999996113, 0.016664800000000923, 0.016265300000043226];96;4;0.04982680000000528;blank.tiff;mask.tiff;-0.14;a;['right'];0.40108879999996816;0;0.927;3.1679638000000523;64
22;S12;A;pre;1;59.90908197718123;[0.01640450000002147, 0.016735499999981585, 0.016356900000005226, 0.016838699999993878];9;2;0.04993109999998069;2.tif;mask.tiff;0.14;left;['left'];0.949195799999984;1;1.924;4.715308099999959;35
23;S12;A;pre;1;59.90908197718123;[0.016721899999993184, 0.016596200000037697, 0.01647069999995665, 0.016924900000049092];64;4;0.04999180000004344;2.tif;mask.tiff;-0.14;left;['left'];0.40189329999998336;1;2.721;4.96880520000002;66
24;S12;A;pre;1;59.90908197718123;[0.016572499999995216, 0.01677430000000868, 0.01628029999994851, 0.016974500000003445];95;3;0.050029099999960636;blank.tiff;mask.tiff;0.14;a;['right'];0.6173790000000281;0;0.832;3.283684800000003;49
25;S12;A;pre;1;59.90908197718123;[0.017026199999975233, 0.01653449999997747, 0.01679320000005191, 0.016056899999966845];43;1;0.049384599999996226;3.tif;mask.tiff;0.14;left;['left'];1.2059815000000071;1;0.875;3.9223858999999948;21
26;S12;A;pre;1;59.90908197718123;[0.01659660000001395, 0.015792199999964396, 0.017073000000038974, 0.016505199999983233];26;4;0.0493703999999866;3.tif;mask.tiff;-0.14;left;['left'];0.43276860000003126;1;0.949;3.231896899999981;68
27;S12;A;pre;1;59.90908197718123;[0.016481999999996333, 0.01645960000001878, 0.01694159999999556, 0.01689600000003111];35;5;0.05029720000004545;3.tif;mask.tiff;0.14;left;['left'];0.5835390999999959;1;0.959;3.3835095000000024;85
28;S12;A;pre;1;59.90908197718123;[0.01626880000003439, 0.01665509999997994, 0.016899700000010398, 0.016367399999978716];23;3;0.04992219999996905;8.tif;mask.tiff;0.14;right;['right'];0.3525486000000342;1;0.816;3.0027938000000063;57
29;S12;A;pre;1;59.90908197718123;[0.01710710000003246, 0.016514200000017354, 0.01636299999995572, 0.01700770000002194];53;2;0.049884899999995014;7.tif;mask.tiff;0.14;right;['right'];0.3850578999999925;1;0.907;3.1346015999999963;39
30;S12;A;pre;1;59.90908197718123;[0.017088899999976093, 0.016516599999988557, 0.016894000000036158, 0.016523299999960273];17;3;0.04993389999998499;2.tif;mask.tiff;0.14;left;['left'];0.2748774000000367;1;1.351;3.458373600000016;51
31;S12;A;pre;1;59.90908197718123;[0.01722040000004199, 0.01638959999996814, 0.01682650000003605, 0.016748599999971248];19;3;0.04996469999997544;3.tif;mask.tiff;0.14;left;['left'];1.0638903999999911;1;0.787;3.697203599999966;53
32;S12;A;pre;1;59.90908197718123;[0.01720949999997856, 0.015839599999992515, 0.0168613000000164, 0.016877399999998488];90;1;0.0495783000000074;blank.tiff;mask.tiff;-0.14;a;['right'];0.3000163000000384;0;1.262;3.3994391999999607;16
33;S12;A;pre;1;59.90908197718123;[0.016750699999988683, 0.016994800000020405, 0.016341199999942546, 0.017347100000051796];50;2;0.05068310000001475;3.tif;mask.tiff;-0.14;left;['left'];0.31368470000001025;1;0.945;3.1140649000000167;36
34;S12;A;pre;1;59.90908197718123;[0.016835700000001452, 0.01631540000005316, 0.016305899999906615, 0.0167641000000458];2;1;0.049385400000005575;3.tif;mask.tiff;-0.14;left;['left'];0.31270539999997027;0;0.91;3.0624897000000146;20
35;S12;A;pre;1;59.90908197718123;[0.017025600000010854, 0.017064300000015464, 0.016316399999936948, 0.01700549999998202];57;3;0.05038619999993443;2.tif;mask.tiff;0.14;left;['left'];0.3000633999999991;1;0.844;2.9833707999999888;51
36;S12;A;pre;1;59.90908197718123;[0.016777099999899292, 0.017173000000070715, 0.01585529999999835, 0.017433200000027682];13;2;0.05046150000009675;7.tif;mask.tiff;0.14;right;['right'];0.5813239999999951;1;1.687;4.115103699999963;39
37;S12;A;pre;1;59.90908197718123;[0.0162731000000349, 0.016654300000027433, 0.016084199999909288, 0.016923399999996036];33;5;0.04966189999993276;2.tif;mask.tiff;0.14;left;['left'];0.40325770000004013;1;1.085;3.3358805000000302;83
38;S12;A;pre;1;59.90908197718123;[0.017011799999977484, 0.016449599999987186, 0.01690099999996164, 0.016865300000063144];93;2;0.05021590000001197;blank.tiff;mask.tiff;0.14;a;['left'];0.4215373999999201;0;0.696;2.9711975999999822;33
39;S12;A;pre;1;59.90908197718123;[0.010661400000003596, 0.016696799999976975, 0.01610670000002301, 0.016665399999965302];62;3;0.04946889999996529;8.tif;mask.tiff;-0.14;right;['right'];0.28401270000006207;0;2.135;4.300891499999921;56
40;S12;A;pre;1;59.90908197718123;[0.016794300000015028, 0.017162600000006023, 0.01650449999999637, 0.016279199999985394];78;5;0.04994629999998779;8.tif;mask.tiff;-0.14;right;['right'];0.3295094000000063;0;1.174;3.3467147999999725;88
41;S12;A;pre;1;59.90908197718123;[0.01614950000009685, 0.01685809999992216, 0.016673500000024433, 0.016915799999992487];40;1;0.05044739999993908;2.tif;mask.tiff;-0.14;left;['left'];0.2682651000000078;1;0.808;2.9174189000000297;18
42;S12;A;pre;1;59.90908197718123;[0.01638869999999315, 0.017719599999963975, 0.015898700000093413, 0.016860599999972692];7;1;0.05047890000003008;8.tif;mask.tiff;0.14;right;['right'];0.31981149999990066;1;0.844;3.0033506999999418;25
43;S12;A;pre;1;59.90908197718123;[0.013140600000042468, 0.016806899999892266, 0.017344800000046234, 0.01671729999998206];58;3;0.05086899999992056;3.tif;mask.tiff;-0.14;left;['left'];0.281656699999985;1;0.878;2.9983316999999943;52
44;S12;A;pre;1;59.90908197718123;[0.016952000000060252, 0.01612339999996948, 0.016917700000021796, 0.01648679999993874];87;4;0.049527899999930014;blank.tiff;mask.tiff;0.14;a;['right'];0.32829739999999674;0;0.788;2.9610546000000113;65
45;S12;A;pre;1;59.90908197718123;[0.016650099999992563, 0.01707869999995637, 0.01634250000006432, 0.016867199999978766];27;4;0.050288399999999456;3.tif;mask.tiff;0.14;left;['left'];0.42542869999999766;0;0.836;3.109555300000011;69
46;S12;A;pre;1;59.90908197718123;[0.017099400000006426, 0.016706999999996697, 0.01629409999998188, 0.016791499999953885];94;3;0.04979259999993246;blank.tiff;mask.tiff;-0.14;a;['left'];0.33167999999989206;0;0.72;2.8817242999999735;48
47;S12;A;pre;1;59.90908197718123;[0.016000299999973322, 0.016606600000045546, 0.016954700000042067, 0.01656449999995857];0;1;0.05012580000004618;2.tif;mask.tiff;-0.14;left;['left'];0.9234733999999207;0;2.074;4.841396700000018;18
48;S12;A;pre;1;59.90908197718123;[0.016221100000052502, 0.017149099999983264, 0.016949599999975362, 0.01617820000001302];72;5;0.05027689999997165;2.tif;mask.tiff;-0.14;left;['left'];0.31365180000000237;1;0.75;2.8969596000000593;82
49;S12;A;pre;1;59.90908197718123;[0.01610969999990175, 0.017260200000009718, 0.016082100000062383, 0.016994800000020405];20;3;0.050337100000092505;7.tif;mask.tiff;-0.14;right;['right'];0.33904690000008486;1;0.929;3.10505569999998;54
50;S12;A;pre;1;59.90908197718123;[0.016863199999988865, 0.01644299999998111, 0.016892600000005586, 0.01681240000004891];8;2;0.05014800000003561;2.tif;mask.tiff;-0.14;left;['left'];0.32564849999994294;1;0.758;2.9253345000000763;34
51;S12;A;pre;1;59.90908197718123;[0.01646660000005795, 0.017105300000025636, 0.01652769999998327, 0.016337499999963256];36;5;0.04997049999997216;7.tif;mask.tiff;-0.14;right;['right'];0.28731550000009065;1;0.848;2.9707798000000594;86
52;S12;A;pre;1;59.90908197718123;[0.016921499999966727, 0.01667880000002242, 0.016662200000041594, 0.016620799999941482];41;1;0.049961800000005496;2.tif;mask.tiff;0.14;left;['left'];0.40280829999994694;1;0.823;3.069298300000014;19
53;S12;A;pre;1;59.90908197718123;[0.016739700000016455, 0.016876699999897937, 0.01688410000008389, 0.0163347000000158];66;4;0.05009549999999763;3.tif;mask.tiff;-0.14;left;['left'];0.3139854999999443;1;5.441;7.597122300000024;68
54;S12;A;pre;1;59.90908197718123;[0.01675620000003164, 0.016710800000055315, 0.01694899999995414, 0.01702690000001894];55;2;0.050686700000028395;8.tif;mask.tiff;0.14;right;['right'];0.3144334999999501;1;1.091;3.2470385000000306;41
55;S12;A;pre;1;59.90908197718123;[0.017186700000024757, 0.016561499999966145, 0.01681440000004386, 0.016185699999937242];61;3;0.04956159999994725;7.tif;mask.tiff;0.14;right;['right'];0.2952334000000292;1;0.758;2.8952502000000777;55
56;S12;A;pre;1;59.90908197718123;[0.01612360000001445, 0.016839899999922636, 0.016793600000028164, 0.017179800000008072];12;2;0.05081329999995887;7.tif;mask.tiff;-0.14;right;['right'];0.24360000000001492;1;0.813;2.8935934999999517;38
57;S12;A;pre;1;59.90908197718123;[0.016637199999991026, 0.0167969000000312, 0.016668200000026445, 0.01688879999994697];76;5;0.050353900000004614;7.tif;mask.tiff;-0.14;right;['right'];0.2425584999999728;1;0.813;2.892143600000054;86
58;S12;A;pre;1;59.90908197718123;[0.01719849999994949, 0.015975400000002082, 0.017112799999949857, 0.016631100000040533];14;2;0.04971929999999247;8.tif;mask.tiff;-0.14;right;['right'];0.34687799999994695;1;0.979;3.164053899999999;40
59;S12;A;pre;1;59.90908197718123;[0.016699199999948178, 0.01707140000007712, 0.01590709999993578, 0.016820499999994354];73;5;0.049799000000007254;2.tif;mask.tiff;0.14;left;['left'];0.41711270000007517;1;0.893;3.1502420000000484;83
60;S12;A;pre;1;59.90908197718123;[0.017228700000032404, 0.01628819999996267, 0.017221199999994496, 0.016796200000044337];69;4;0.050305600000001505;7.tif;mask.tiff;0.14;right;['right'];0.2595937999999478;1;0.971;3.842512499999998;71
61;S12;A;pre;1;59.90908197718123;[0.017540199999984907, 0.01642570000001342, 0.016798200000039287, 0.016696499999966363];6;1;0.04992040000001907;8.tif;mask.tiff;-0.14;right;['right'];0.2546920999999429;1;1.299;3.3883945999999696;24
62;S12;A;pre;1;59.90908197718123;[0.01661679999995158, 0.016850100000056045, 0.01622029999998631, 0.017041500000004817];59;3;0.05011190000004717;3.tif;mask.tiff;0.14;left;['right'];0.2867975999999999;1;0.793;2.9189892000000555;53
63;S12;A;pre;1;59.90908197718123;[0.016817500000001928, 0.01640640000005078, 0.016969300000027943, 0.01694159999999556];31;4;0.05031730000007428;8.tif;mask.tiff;0.14;right;['right'];0.2709717999999839;1;0.873;2.987696999999912;73
64;S12;A;pre;1;59.90908197718123;[0.01679300000000694, 0.015961000000061176, 0.017460400000004483, 0.01629929999990054];86;4;0.0497206999999662;blank.tiff;mask.tiff;-0.14;a;['left'];0.5393215999999939;0;0.828;3.2230104999999867;64
65;S12;A;pre;1;59.90908197718123;[0.017026500000042688, 0.017283000000020365, 0.01624739999999747, 0.015668699999991986];97;4;0.04919910000000982;blank.tiff;mask.tiff;0.14;a;['right'];0.4570281999999679;0;1.519;3.8239065999999866;65
66;S12;A;pre;1;59.90908197718123;[0.01637519999997039, 0.016647000000034495, 0.016604299999926297, 0.016883400000097026];15;2;0.05013470000005782;8.tif;mask.tiff;0.14;right;['right'];0.30036280000001625;1;0.871;3.016861400000039;41
67;S12;A;pre;1;59.90908197718123;[0.016320600000085506, 0.016928799999959665, 0.01672689999998056, 0.016257999999993444];49;2;0.04991369999993367;2.tif;mask.tiff;0.14;left;['left'];0.8215576000000056;0;1.474;4.137894799999913;35
68;S12;A;pre;1;59.90908197718123;[0.017198400000097536, 0.01715419999993628, 0.01563260000000355, 0.017161800000053518];79;5;0.04994859999999335;8.tif;mask.tiff;0.14;right;['right'];1.9278454000000238;1;1.131;4.895870700000046;89
69;S12;A;pre;1;59.90908197718123;[0.016089799999917886, 0.016719800000032592, 0.01691670000002432, 0.01638089999994463];80;1;0.050017400000001544;blank.tiff;mask.tiff;-0.14;a;['left'];0.5294867999999724;0;3.449;5.811781399999973;16
70;S12;A;pre;1;59.90908197718123;[0.017108499999949345, 0.016630100000043058, 0.016838600000028237, 0.016742699999895194];70;4;0.05021139999996649;8.tif;mask.tiff;-0.14;right;['right'];0.39529849999996713;1;0.829;3.0612032000000227;72
71;S12;A;pre;1;59.90908197718123;[0.016779599999949824, 0.017075599999998303, 0.016349200000036035, 0.016998499999999694];34;5;0.05042330000003403;3.tif;mask.tiff;-0.14;left;['left'];0.2689732000000049;0;0.995;3.1021016999999347;84
72;S12;A;pre;1;59.90908197718123;[0.016213500000048953, 0.016573499999935848, 0.016609399999993002, 0.016372000000046683];81;1;0.04955489999997553;blank.tiff;mask.tiff;0.14;a;['left'];0.7173601999999164;0;0.903;3.468424099999993;17
73;S12;A;pre;1;59.90908197718123;[0.015881199999967066, 0.017504000000030828, 0.016146199999980126, 0.016882799999962117];77;5;0.05053299999997307;7.tif;mask.tiff;0.14;right;['right'];1.2650494000000663;1;1.092;4.252247200000056;87
74;S12;A;pre;1;59.90908197718123;[0.014528199999972458, 0.016410899999982576, 0.017629100000021936, 0.01587080000001606];75;5;0.04991080000002057;3.tif;mask.tiff;0.14;left;['left'];0.3166106999999556;0;1.526;3.6835274999999683;85
75;S12;A;pre;1;59.90908197718123;[0.015846499999952357, 0.017074500000035187, 0.0171235999999908, 0.01663169999994807];67;4;0.05082979999997406;3.tif;mask.tiff;0.14;left;['right'];0.8391062000000602;0;3.229;5.9057392999999365;69
76;S12;A;pre;1;59.90908197718123;[0.016749300000014955, 0.016221699999960038, 0.01662680000004002, 0.016475000000014006];10;2;0.049323500000014064;3.tif;mask.tiff;-0.14;left;['left'];0.2305208999999877;0;1.608;3.6810341000000335;36
77;S12;A;pre;1;59.90908197718123;[0.016032200000040575, 0.016305999999985943, 0.016723299999966912, 0.01680229999999483];74;5;0.049831599999947684;3.tif;mask.tiff;-0.14;left;['left'];0.22928090000004886;1;0.783;2.862589400000047;84
78;S12;A;pre;1;59.90908197718123;[0.017166099999940343, 0.016466700000023593, 0.01592330000005404, 0.016963899999950627];30;4;0.04935390000002826;8.tif;mask.tiff;-0.14;right;['right'];0.7793760999999222;1;0.839;3.4624675000000025;72
79;S12;A;pre;1;59.90908197718123;[0.0168065000000297, 0.016538299999979245, 0.016237199999977747, 0.016283299999940937];3;1;0.04905879999989793;3.tif;mask.tiff;0.14;left;['left'];0.26998379999997724;1;0.797;2.90267259999996;21
80;S12;A;pre;1;59.90908197718123;[0.016476799999963987, 0.016359400000055757, 0.01636889999997493, 0.015900600000009035];83;2;0.04862890000003972;blank.tiff;mask.tiff;0.14;a;['left'];0.690758599999981;0;0.767;3.2908233000000564;33
81;S12;A;pre;1;59.90908197718123;[0.01448789999994915, 0.015585399999963556, 0.016636500000004162, 0.01739640000005238];39;5;0.0496183000000201;8.tif;mask.tiff;0.14;right;['right'];0.44064659999992273;1;1.615;3.890413599999988;89
82;S12;A;pre;1;59.90908197718123;[0.016619099999957143, 0.017049300000053336, 0.016894399999955567, 0.016789399999993293];65;4;0.050733100000002196;2.tif;mask.tiff;0.14;left;['left'];0.3882519000000002;1;0.884;3.1377531000000545;67
83;S12;A;pre;1;59.90908197718123;[0.015690100000028906, 0.016976999999997133, 0.016029399999979432, 0.01707120000003215];54;2;0.050077600000008715;8.tif;mask.tiff;-0.14;right;['right'];0.8571858000000248;1;0.819;3.524131299999908;40
84;S12;A;pre;1;59.90908197718123;[0.017201600000021244, 0.016826899999955458, 0.01686449999999695, 0.01675790000001598];16;3;0.05044929999996839;2.tif;mask.tiff;-0.14;left;['left'];0.2669314999999415;1;0.724;2.83336369999995;50
85;S12;A;pre;1;59.90908197718123;[0.0167233000000806, 0.01658020000002125, 0.017164899999897898, 0.015982500000063737];52;2;0.049727599999982885;7.tif;mask.tiff;-0.14;right;['right'];0.5174945999999636;1;1.077;3.450907099999995;38
86;S12;A;pre;1;59.90908197718123;[0.01614930000005188, 0.017400399999928595, 0.016288300000042, 0.016731800000002295];60;3;0.05042049999997289;7.tif;mask.tiff;-0.14;right;['right'];0.47761879999995926;1;1.258;3.5774703000000727;54
87;S12;A;pre;1;59.90908197718123;[0.014472500000010768, 0.016791499999953885, 0.01599039999996421, 0.01728379999997287];98;5;0.05006569999989097;blank.tiff;mask.tiff;-0.14;a;['right'];0.9311840000000302;1;2.43;5.19803730000001;80
88;S12;A;pre;1;59.90908197718123;[0.01663429999996424, 0.01715820000003987, 0.015918700000042918, 0.017255900000009206];29;4;0.05033280000009199;7.tif;mask.tiff;0.14;right;['right'];0.44961909999994987;1;0.767;3.0484930999999733;71
89;S12;A;pre;1;59.90908197718123;[0.016254099999969185, 0.016279100000019753, 0.01727359999995315, 0.016470700000013494];91;1;0.050023399999986395;blank.tiff;mask.tiff;0.14;a;['right'];0.6860626000000138;0;1.991;4.5185334999999895;17
90;S12;A;pre;1;59.90908197718123;[0.016449899999997797, 0.01628640000001269, 0.016849600000000464, 0.016198300000041854];47;1;0.04933430000005501;8.tif;mask.tiff;0.14;right;['right'];0.27821589999996377;1;0.702;2.8277758000000404;25
91;S12;A;pre;1;59.90908197718123;[0.013106099999959042, 0.017484400000057576, 0.016619300000002113, 0.016758499999923515];18;3;0.050862199999983204;3.tif;mask.tiff;-0.14;left;['left'];0.29253090000008797;0;0.649;2.775642699999935;52
92;S12;A;pre;1;59.90908197718123;[0.012515000000007603, 0.015640999999959604, 0.017959300000029543, 0.016258600000014667];4;1;0.049858900000003814;7.tif;mask.tiff;-0.14;right;['right'];0.24952699999994365;1;0.752;2.832992300000001;22
93;S12;A;pre;1;59.90908197718123;[0.016190299999948365, 0.017234500000085973, 0.01667609999992692, 0.01769190000004528];82;2;0.05160250000005817;blank.tiff;mask.tiff;-0.14;a;['right'];0.6370402999999669;0;1.252;3.7382884000001013;32
94;S12;A;pre;1;59.90908197718123;[0.017325799999980518, 0.015983099999971273, 0.016638899999975365, 0.01733280000007653];84;3;0.04995480000002317;blank.tiff;mask.tiff;-0.14;a;['right'];4.978541299999961;0;1.497;8.312191899999902;48
95;S12;A;pre;1;59.90908197718123;[0.016496200000005956, 0.016450200000008408, 0.016171399999961977, 0.01693590000002132];28;4;0.049557499999991705;7.tif;mask.tiff;-0.14;right;['right'];0.32689479999999094;1;1.315;3.476197099999922;70
96;S12;A;pre;1;59.90908197718123;[0.01638660000003256, 0.016161099999976614, 0.01793899999995574, 0.016712700000084624];5;1;0.05081280000001698;7.tif;mask.tiff;0.14;right;['right'];0.25776570000004995;1;0.842;2.9409051999999747;23
97;S12;A;pre;1;59.90908197718123;[0.017970799999943665, 0.015918199999987337, 0.016351600000007238, 0.016713400000071488];56;3;0.04898320000006606;2.tif;mask.tiff;-0.14;left;['left'];0.2519396999999799;1;2.887;4.985140300000012;50
98;S12;A;pre;1;59.90908197718123;[0.016956499999992047, 0.016867499999989377, 0.016176800000039293, 0.016742599999929553];42;1;0.04978689999995822;3.tif;mask.tiff;-0.14;left;['left'];0.5347342000000026;0;1.108;3.4846979000000147;20
99;S12;A;pre;1;59.90908197718123;[0.01607139999998708, 0.017260899999996582, 0.016665399999965302, 0.01697280000007595];37;5;0.050899100000037834;7.tif;mask.tiff;0.14;right;['right'];0.571776899999918;1;1.706;4.12241819999997;87
100;S12;A;pre;2;59.90908197718123;[0.01723179999999047, 0.01615870000000541, 0.017817799999988893, 0.019229600000016944];49;2;0.05320610000001125;2.tif;mask.tiff;0.14;left;['left'];0.27274290000002566;1;0.588;2.7048805000000584;35
101;S12;A;pre;2;59.90908197718123;[0.0158041999999341, 0.016306900000017777, 0.016575900000020738, 0.017369700000017474];32;5;0.05025250000005599;2.tif;mask.tiff;-0.14;left;['left'];0.3356741999999713;1;1.11;3.28552389999993;82
102;S12;A;pre;2;59.90908197718123;[0.012586800000008225, 0.016798200000039287, 0.016617300000007162, 0.017052799999987656];92;2;0.050468300000034105;blank.tiff;mask.tiff;-0.14;a;['left'];0.2745472999999947;0;0.832;2.956413600000019;32
103;S12;A;pre;2;59.90908197718123;[0.016891799999939394, 0.01716369999996914, 0.016833000000019638, 0.01613729999996849];63;3;0.05013399999995727;8.tif;mask.tiff;0.14;right;['left'];0.379122700000039;1;2.286;4.512672500000008;57
104;S12;A;pre;2;59.90908197718123;[0.017496599999958562, 0.01617440000006809, 0.016544399999929738, 0.01687990000004902];8;2;0.04959870000004685;2.tif;mask.tiff;-0.14;left;['left'];0.3155484000000115;1;1.39;3.5816632999999456;34
105;S12;A;pre;2;59.90908197718123;[0.015772599999991144, 0.016413000000056854, 0.017476399999964087, 0.015903699999967102];16;3;0.049793099999988044;2.tif;mask.tiff;-0.14;left;['left'];0.531930799999941;1;3.073;5.448790499999973;50
106;S12;A;pre;2;59.90908197718123;[0.016771899999980633, 0.016224699999952463, 0.01735400000006848, 0.0162103999999772];14;2;0.04978909999999814;8.tif;mask.tiff;-0.14;right;['right'];0.29936559999998735;0;2.904;5.0485775999999305;40
107;S12;A;pre;2;59.90908197718123;[0.014776499999925363, 0.01649689999999282, 0.016618400000083966, 0.016686100000015358];41;1;0.049801400000092144;2.tif;mask.tiff;0.14;left;['left'];0.2397696000000451;1;0.784;2.872941100000048;19
108;S12;A;pre;2;59.90908197718123;[0.01672310000003563, 0.016263799999933326, 0.016496400000050926, 0.017011899999943125];75;5;0.04977209999992738;3.tif;mask.tiff;0.14;left;['left'];0.41221780000000763;0;0.862;3.1073377000000164;85
109;S12;A;pre;2;59.90908197718123;[0.016389300000014373, 0.016899899999998524, 0.015976899999941452, 0.017002300000058312];67;4;0.04987909999999829;3.tif;mask.tiff;0.14;left;['left'];0.24145720000001347;1;0.893;2.975208700000053;69
110;S12;A;pre;2;59.90908197718123;[0.01591880000000856, 0.016549899999972695, 0.01779790000000503, 0.01595899999995254];76;5;0.05030679999993026;7.tif;mask.tiff;-0.14;right;['right'];0.3703058000000965;1;0.929;3.137392699999964;86
111;S12;A;pre;2;59.90908197718123;[0.01704399999994166, 0.016422900000065965, 0.016410500000006323, 0.017089299999952345];38;5;0.049922700000024633;8.tif;mask.tiff;-0.14;right;['left'];0.5054205999999795;1;2.871;5.221632600000021;88
112;S12;A;pre;2;59.90908197718123;[0.016859299999964605, 0.016229199999997945, 0.016975600000023405, 0.01667480000003252];73;5;0.04987960000005387;2.tif;mask.tiff;0.14;left;['left'];1.24550899999997;1;1.2;4.294657200000074;83
113;S12;A;pre;2;59.90908197718123;[0.01657589999990705, 0.016536700000074234, 0.01650069999993775, 0.017368500000088716];9;2;0.0504059000001007;2.tif;mask.tiff;0.14;left;['right'];0.48679309999999987;0;1.956;4.28638090000004;35
114;S12;A;pre;2;59.90908197718123;[0.017179000000055566, 0.017210999999974774, 0.016496200000005956, 0.01697120000005725];78;5;0.05067840000003798;8.tif;mask.tiff;-0.14;right;['left'];0.40216799999996056;0;0.852;3.1021208999999317;88
115;S12;A;pre;2;59.90908197718123;[0.016609399999993002, 0.016830700000014076, 0.016502400000035777, 0.01630739999995967];68;4;0.049640500000009524;7.tif;mask.tiff;-0.14;right;['right'];0.2768258999999489;1;0.871;3.6428075000000035;70
116;S12;A;pre;2;59.90908197718123;[0.01603299999999308, 0.016948600000091574, 0.016354099999944083, 0.016337099999987004];40;1;0.04963980000002266;2.tif;mask.tiff;-0.14;left;['left'];0.2878967999999986;1;0.869;3.003702999999973;18
117;S12;A;pre;2;59.90908197718123;[0.016830099999992854, 0.01654099999996106, 0.0166302000000087, 0.017226800000003095];43;1;0.05039799999997285;3.tif;mask.tiff;0.14;left;['right'];0.6576074999999264;1;2.675;5.1745498000000225;21
118;S12;A;pre;2;59.90908197718123;[0.01693909999994503, 0.016582299999981842, 0.01628230000005715, 0.01702469999997902];4;1;0.04988930000001801;7.tif;mask.tiff;-0.14;right;['right'];0.25025170000003527;1;1.356;3.4505797000000484;22
119;S12;A;pre;2;59.90908197718123;[0.012523299999998017, 0.016107300000044233, 0.017251299999998082, 0.015661600000044018];51;2;0.049020200000086334;3.tif;mask.tiff;0.14;left;['left'];0.4267458000000488;1;0.939;3.2265618999999788;37
120;S12;A;pre;2;59.90908197718123;[0.017084400000044297, 0.016699099999982536, 0.016354999999975917, 0.016603000000031898];65;4;0.04965709999999035;2.tif;mask.tiff;0.14;left;['left'];0.4529064000000744;0;1.125;3.4187678000000687;67
121;S12;A;pre;2;59.90908197718123;[0.01683750000006512, 0.01662859999999, 0.016696899999942616, 0.01664850000008755];29;4;0.04997400000002017;7.tif;mask.tiff;0.14;right;['right'];0.3101410000000442;1;0.837;3.6762505000000374;71
122;S12;A;pre;2;59.90908197718123;[0.016191100000014558, 0.016264200000023266, 0.016660600000022896, 0.01721969999994144];21;3;0.0501444999999876;7.tif;mask.tiff;0.14;right;['right'];0.24600909999992382;1;0.723;2.8119449000000714;55
123;S12;A;pre;2;59.90908197718123;[0.016442400000073576, 0.01684720000002926, 0.016922499999964202, 0.01592089999996915];48;2;0.049690599999962615;2.tif;mask.tiff;-0.14;left;['left'];0.3438297000000148;1;3.296;5.477367200000003;34
124;S12;A;pre;2;59.90908197718123;[0.016432399999985137, 0.01752699999997276, 0.015265200000044388, 0.01720880000004854];54;2;0.05000100000006569;8.tif;mask.tiff;-0.14;right;['right'];0.4868145000000368;1;0.905;3.2366600999999946;40
125;S12;A;pre;2;59.90908197718123;[0.016150200000083714, 0.017303599999991093, 0.016424599999936618, 0.016621299999997063];10;2;0.050349499999924774;3.tif;mask.tiff;-0.14;left;['left'];0.28832420000003367;0;0.909;3.0380788999999595;36
126;S12;A;pre;2;59.90908197718123;[0.016277400000035414, 0.016809800000146424, 0.016370199999983015, 0.017083299999967494];60;3;0.05026330000009693;7.tif;mask.tiff;-0.14;right;['right'];0.34164350000014565;1;1.534;3.7249676000001273;54
127;S12;A;pre;2;59.90908197718123;[0.007613199999923381, 0.01662350000015067, 0.01676129999987097, 0.016546800000014628];58;3;0.04993160000003627;3.tif;mask.tiff;-0.14;left;['right'];0.6372885999999198;0;2.714;5.21989960000019;52
128;S12;A;pre;2;59.90908197718123;[0.016046500000129527, 0.016983699999855162, 0.016132400000060443, 0.01679809999995996];7;1;0.049914199999875564;8.tif;mask.tiff;0.14;right;['right'];0.7731274000000212;0;1.753;4.373186900000064;25
129;S12;A;pre;2;59.90908197718123;[0.017862400000012713, 0.01662250000003951, 0.016460299999835115, 0.01695150000000467];31;4;0.050034299999879295;8.tif;mask.tiff;0.14;right;['right'];0.31292610000014065;0;1.182;3.3467577999999776;73
130;S12;A;pre;2;59.90908197718123;[0.016347600000017337, 0.016919700000016746, 0.016876400000001013, 0.01643899999999121];15;2;0.05023510000000897;8.tif;mask.tiff;0.14;right;['right'];0.2780230999999276;1;3.071;5.195470699999987;41
131;S12;A;pre;2;59.90908197718123;[0.016017300000157775, 0.017374699999891163, 0.01666590000013457, 0.01960529999996652];57;3;0.05364589999999225;2.tif;mask.tiff;0.14;left;['left'];0.25757980000003045;1;0.857;2.957058599999982;51
132;S12;A;pre;2;59.90908197718123;[0.01690010000015718, 0.017035200000009354, 0.016322799999898052, 0.016000899999880858];24;4;0.049358899999788264;2.tif;mask.tiff;-0.14;left;['left'];0.3465607999999065;1;0.75;2.9457589000001008;66
133;S12;A;pre;2;59.90908197718123;[0.0167137000000821, 0.016204000000016094, 0.0169980000000578, 0.016773000000057436];91;1;0.04997500000013133;blank.tiff;mask.tiff;0.14;a;['left'];0.6865758999999798;0;2.172;4.698725200000126;17
134;S12;A;pre;2;59.90908197718123;[0.017514800000071773, 0.01617050000004383, 0.017067399999859845, 0.015910800000028757];66;4;0.04914869999993243;3.tif;mask.tiff;-0.14;left;['left'];0.36881799999991927;1;1.04;3.253161400000181;68
135;S12;A;pre;2;59.90908197718123;[0.016444100000171602, 0.016971099999864236, 0.01824439999995775, 0.014240500000141765];28;4;0.04945599999996375;7.tif;mask.tiff;-0.14;right;['right'];0.22478320000004715;1;0.677;2.741243700000041;70
136;S12;A;pre;2;59.90908197718123;[0.015952799999922718, 0.016790500000070097, 0.01628219999997782, 0.01688519999993332];25;4;0.04995789999998124;2.tif;mask.tiff;0.14;left;['left'];0.28611799999998766;1;0.844;2.969348000000082;67
137;S12;A;pre;2;59.90908197718123;[0.016973799999959738, 0.016872000000148546, 0.016587899999876754, 0.016960200000085024];27;4;0.050420100000110324;3.tif;mask.tiff;0.14;left;['left'];3.1469281000001956;0;1.214;6.197054299999991;69
138;S12;A;pre;2;59.90908197718123;[0.016821500000105516, 0.016265399999838337, 0.017630100000133098, 0.01675529999988612];22;3;0.050650799999857554;8.tif;mask.tiff;-0.14;right;['right'];0.298564499999884;0;2.049;4.181892899999866;56
139;S12;A;pre;2;59.90908197718123;[0.01598669999998492, 0.018005399999992733, 0.015935099999978775, 0.017477299999882234];13;2;0.05141779999985374;7.tif;mask.tiff;0.14;right;['right'];0.2542250999999851;1;1.241;3.338004299999966;39
140;S12;A;pre;2;59.90908197718123;[0.016638499999999112, 0.016418400000020483, 0.01718010000013237, 0.01642679999986285];96;4;0.050025300000015704;blank.tiff;mask.tiff;-0.14;a;['right'];0.37392509999995127;0;0.743;2.957522600000175;64
141;S12;A;pre;2;59.90908197718123;[0.015670600000021295, 0.01704939999990529, 0.016527300000007017, 0.016409400000156893];79;5;0.0499861000000692;8.tif;mask.tiff;0.14;right;['right'];0.30425990000003367;0;1.595;3.7366431999998895;89
142;S12;A;pre;2;59.90908197718123;[0.016765900000109468, 0.01670790000002853, 0.016184199999997873, 0.017390900000009424];34;5;0.05028300000003583;3.tif;mask.tiff;-0.14;left;['left'];0.21883069999989857;0;2.086;4.151499000000058;84
143;S12;A;pre;2;59.90908197718123;[0.013650899999902322, 0.016962500000090586, 0.016609499999958643, 0.017005200000085097];3;1;0.050577200000134326;3.tif;mask.tiff;0.14;left;['left'];0.28029930000002423;0;0.635;2.7468430000001263;21
144;S12;A;pre;2;59.90908197718123;[0.016651099999990038, 0.01655709999999999, 0.016754600000012942, 0.016670100000055754];90;1;0.04998180000006869;blank.tiff;mask.tiff;-0.14;a;['right'];1.1323232999998254;0;0.808;3.7816600999999537;16
145;S12;A;pre;2;59.90908197718123;[0.01683509999998023, 0.016658199999938006, 0.016835200000059558, 0.016440800000054878];46;1;0.04993420000005244;8.tif;mask.tiff;-0.14;right;['right'];1.5051080000000638;0;1.768;5.1053245999999035;24
146;S12;A;pre;2;59.90908197718123;[0.014681999999993423, 0.016194300000051953, 0.016361100000040096, 0.017086699999936172];84;3;0.04964210000002822;blank.tiff;mask.tiff;-0.14;a;['left'];0.2835321000000022;0;1.051;3.182657299999846;48
147;S12;A;pre;2;59.90908197718123;[0.017395899999883113, 0.016224599999986822, 0.016695600000048216, 0.016202900000052978];55;2;0.049123100000088016;8.tif;mask.tiff;0.14;right;['right'];0.38124130000005607;0;0.721;2.947217500000079;41
148;S12;A;pre;2;59.90908197718123;[0.016709099999843602, 0.01680150000015601, 0.01660249999986263, 0.016768599999977596];83;2;0.05017259999999624;blank.tiff;mask.tiff;0.14;a;['left'];0.28346940000005816;0;1.463;3.583590800000138;33
149;S12;A;pre;2;59.90908197718123;[0.017202700000098048, 0.01639219999992747, 0.016512499999862484, 0.016591700000162746];17;3;0.0494963999999527;2.tif;mask.tiff;0.14;left;['left'];0.9519719999998415;1;0.991;3.7850171000000046;51
150;S12;A;pre;2;59.90908197718123;[0.01655609999988883, 0.016888500000050044, 0.016667599999891536, 0.01672310000003563];23;3;0.05027919999997721;8.tif;mask.tiff;0.14;right;['right'];0.5548750999998902;1;0.978;3.3713692999999694;57
151;S12;A;pre;2;59.90908197718123;[0.016639500000110274, 0.016974299999901632, 0.01643629999989571, 0.016908199999988938];95;3;0.05031879999978628;blank.tiff;mask.tiff;0.14;a;['left'];0.23882099999991624;0;1.19;3.2721888000000945;49
152;S12;A;pre;2;59.90908197718123;[0.01685900000006768, 0.016675800000029994, 0.016794799999843235, 0.016220200000134355];71;4;0.049690800000007584;8.tif;mask.tiff;0.14;right;['left'];0.8299759000001359;0;3.213;5.879976400000032;73
153;S12;A;pre;2;59.90908197718123;[0.016571500000054584, 0.01623939999990398, 0.017198000000007596, 0.016373599999951693];93;2;0.04981099999986327;blank.tiff;mask.tiff;0.14;a;['left'];0.4647835999999188;0;3.681;5.9806466;33
154;S12;A;pre;2;59.90908197718123;[0.016234700000040903, 0.01658610000004046, 0.016649199999847042, 0.01701180000009117];11;2;0.05024709999997867;3.tif;mask.tiff;0.14;left;['left'];0.2694536999999855;0;0.837;2.9524721000000227;37
155;S12;A;pre;2;59.90908197718123;[0.016632699999945544, 0.017027599999892118, 0.016492700000071636, 0.01588650000007874];98;5;0.049406800000042495;blank.tiff;mask.tiff;-0.14;a;['right'];0.3208767999999509;0;0.638;2.7876477999998315;80
156;S12;A;pre;2;59.90908197718123;[0.01662510000005568, 0.01706930000000284, 0.01646349999987251, 0.016267900000002555];42;1;0.049800699999877907;3.tif;mask.tiff;-0.14;left;['left'];0.30724599999985003;0;0.826;2.973443499999803;20
157;S12;A;pre;2;59.90908197718123;[0.015202300000055402, 0.01667730000008305, 0.01709460000006402, 0.016406299999971452];59;3;0.05017820000011852;3.tif;mask.tiff;0.14;left;['left'];0.3937518000000182;1;0.963;3.2110958999999184;53
158;S12;A;pre;2;59.90908197718123;[0.017685199999959877, 0.01599850000002334, 0.016925099999980375, 0.016474300000027142];72;5;0.04939790000003086;2.tif;mask.tiff;-0.14;left;['left'];0.26652969999986453;1;0.824;2.9330746999999064;82
159;S12;A;pre;2;59.90908197718123;[0.016725399999813817, 0.017048000000158936, 0.016247399999883783, 0.015885700000126235];94;3;0.049181100000168954;blank.tiff;mask.tiff;-0.14;a;['left'];0.41474010000001726;0;1.184;3.4482525999999325;48
160;S12;A;pre;2;59.90908197718123;[0.014495500000066386, 0.01657999999997628, 0.016972499999837964, 0.01694350000002487];82;2;0.050495999999839114;blank.tiff;mask.tiff;-0.14;a;['left'];0.32266679999997905;0;0.913;3.072828500000014;32
161;S12;A;pre;2;59.90908197718123;[0.0159748999999465, 0.016996199999994133, 0.016554100000121252, 0.016949699999941004];86;4;0.05050000000005639;blank.tiff;mask.tiff;-0.14;a;['right'];0.3421034000000418;0;0.788;2.9749131999999463;64
162;S12;A;pre;2;59.90908197718123;[0.011289299999816649, 0.016744800000196847, 0.016834599999810962, 0.016554600000063147];64;4;0.050134000000070955;2.tif;mask.tiff;-0.14;left;['left'];0.6769828000001326;1;2.88;5.426335799999833;66
163;S12;A;pre;2;59.90908197718123;[0.01708110000004126, 0.016767300000083196, 0.01640189999989161, 0.01645419999999831];87;4;0.04962339999997312;blank.tiff;mask.tiff;0.14;a;['right'];0.7011767999999847;0;1.12;3.651251499999944;65
164;S12;A;pre;2;59.90908197718123;[0.017027999999982057, 0.016457100000025093, 0.016472399999884146, 0.016662700000097175];52;2;0.049592200000006414;7.tif;mask.tiff;-0.14;right;['right'];0.42042609999998604;1;1.384;3.6363178999999946;38
165;S12;A;pre;2;59.90908197718123;[0.016752900000028603, 0.01656779999984792, 0.016725599999972474, 0.016716600000108883];99;5;0.05000999999992928;blank.tiff;mask.tiff;0.14;a;['left'];0.3897698999999193;0;0.751;2.9731597999998485;81
166;S12;A;pre;2;59.90908197718123;[0.017087800000126663, 0.016885099999853992, 0.01705149999997957, 0.01617430000010245];50;2;0.05011089999993601;3.tif;mask.tiff;-0.14;left;['left'];0.3460480999999618;1;1.128;3.3134030999999595;36
167;S12;A;pre;2;59.90908197718123;[0.016907899999978326, 0.016271799999913128, 0.01699359999997796, 0.015873800000008487];12;2;0.049139199999899574;7.tif;mask.tiff;-0.14;right;['right'];0.29874020000011114;1;0.862;2.9991516000000047;38
168;S12;A;pre;2;59.90908197718123;[0.0167641000000458, 0.016560999999910564, 0.01662239999996018, 0.017771799999991345];88;5;0.05095519999986209;blank.tiff;mask.tiff;-0.14;a;['right'];0.450411000000031;0;1.286;3.5681465000000117;80
169;S12;A;pre;2;59.90908197718123;[0.01708949999988363, 0.016659600000139108, 0.01660289999995257, 0.016124799999943207];20;3;0.049387300000034884;7.tif;mask.tiff;-0.14;right;['right'];0.23562020000008488;1;0.779;2.852782500000103;54
170;S12;A;pre;2;59.90908197718123;[0.01691900000014357, 0.01673009999990427, 0.01671329999999216, 0.01735000000007858];0;1;0.05079339999997501;2.tif;mask.tiff;-0.14;left;['left'];0.2500790000001416;1;0.77;2.8678945999999996;18
171;S12;A;pre;2;59.90908197718123;[0.016279599999961647, 0.0165454000000409, 0.017088300000068557, 0.016610099999979866];18;3;0.05024380000008932;3.tif;mask.tiff;-0.14;left;['left'];0.24172760000010385;1;0.795;2.874192799999946;52
172;S12;A;pre;2;59.90908197718123;[0.017741099999966536, 0.016597699999920223, 0.016832600000043385, 0.016264300000102594];33;5;0.0496946000000662;2.tif;mask.tiff;0.14;left;['left'];0.3160711000000447;1;2.107;4.2988379000000805;83
173;S12;A;pre;2;59.90908197718123;[0.017339700000093217, 0.01623440000003029, 0.01671160000000782, 0.0164606000000731];1;1;0.04940660000011121;2.tif;mask.tiff;0.14;left;['left'];0.8438218000001143;0;0.912;3.5937305999998443;19
174;S12;A;pre;2;59.90908197718123;[0.0164758000000802, 0.016714900000124544, 0.01667090000000826, 0.016983599999775834];2;1;0.05036939999990864;3.tif;mask.tiff;-0.14;left;['left'];0.6197352000001501;0;2.765;5.219391099999939;20
175;S12;A;pre;2;59.90908197718123;[0.016502800000125717, 0.016982399999960762, 0.016289799999867682, 0.01734840000017357];61;3;0.050620600000002014;7.tif;mask.tiff;0.14;right;['right'];4.0288949000000684;0;2.195;8.061851299999944;55
176;S12;A;pre;2;59.90908197718123;[0.01647939999998016, 0.016280400000141526, 0.016316599999981918, 0.016689600000063365];30;4;0.04928660000018681;8.tif;mask.tiff;-0.14;right;['right'];0.20894159999988915;1;0.624;2.676415499999848;72
177;S12;A;pre;2;59.90908197718123;[0.01606579999997848, 0.016542200000003504, 0.01649859999997716, 0.0166573999999855];5;1;0.049698199999966164;7.tif;mask.tiff;0.14;right;['right'];0.2129336999998941;1;0.718;2.780148000000054;23
178;S12;A;pre;2;59.90908197718123;[0.01638419999994767, 0.01691219999997884, 0.01700170000003709, 0.01653889999988678];77;5;0.05045279999990271;7.tif;mask.tiff;0.14;right;['right'];0.21325479999995878;1;0.794;2.8469941999999264;87
179;S12;A;pre;2;59.90908197718123;[0.016244500000084372, 0.016404200000124547, 0.01648069999987456, 0.016859099999919636];69;4;0.04974399999991874;7.tif;mask.tiff;0.14;right;['right'];0.30866089999994983;1;0.83;2.974839100000054;71
180;S12;A;pre;2;59.90908197718123;[0.01685100000008788, 0.016839899999922636, 0.016925300000139032, 0.016190699999924618];97;4;0.049955899999986286;blank.tiff;mask.tiff;0.14;a;['right'];0.4539761000000908;0;2.466;4.753480999999965;65
181;S12;A;pre;2;59.90908197718123;[0.016875600000048507, 0.016718399999945177, 0.01647240000011152, 0.01691549999986819];36;5;0.050106299999924886;7.tif;mask.tiff;-0.14;right;['right'];0.4170512000000599;1;1.287;3.5497715999999855;86
182;S12;A;pre;2;59.90908197718123;[0.016926900000044043, 0.016665699999975914, 0.016483999999991283, 0.017498799999884795];35;5;0.05064849999985199;3.tif;mask.tiff;0.14;left;['left'];0.21521450000000186;0;0.642;2.6984721999999692;85
183;S12;A;pre;2;59.90908197718123;[0.01670190000004368, 0.016387399999985064, 0.017110799999954907, 0.017280799999980445];70;4;0.050778999999920416;8.tif;mask.tiff;-0.14;right;['right'];0.22099339999999756;1;0.828;2.887597400000004;72
184;S12;A;pre;2;59.90908197718123;[0.01651839999999538, 0.016813299999967057, 0.01660089999995762, 0.01690580000013142];89;5;0.0503200000000561;blank.tiff;mask.tiff;0.14;a;['left'];0.34200590000000375;0;2.644;4.8254047000000355;81
185;S12;A;pre;2;59.90908197718123;[0.01632130000007237, 0.01645379999990837, 0.016787799999974595, 0.016463200000089273];44;1;0.04970479999997224;7.tif;mask.tiff;-0.14;right;['right'];0.5441759000000275;1;2.96;5.3440755999999965;22
186;S12;A;pre;2;59.90908197718123;[0.016551299999946423, 0.01665420000017548, 0.016609099999868704, 0.01715620000004492];56;3;0.0504195000000891;2.tif;mask.tiff;-0.14;left;['left'];0.2251131999998961;1;1.264;3.323920199999975;50
187;S12;A;pre;2;59.90908197718123;[0.015934000000015658, 0.016779999999926076, 0.01713800000015908, 0.015998599999875296];37;5;0.049916599999960454;7.tif;mask.tiff;0.14;right;['right'];0.30529409999985546;1;1.201;3.3547899000000143;87
188;S12;A;pre;2;59.90908197718123;[0.016686500000105298, 0.016791399999874557, 0.016661300000123447, 0.016496299999971598];19;3;0.0499489999999696;3.tif;mask.tiff;0.14;left;['left'];0.5415660000001026;0;3.37;5.757785900000044;53
189;S12;A;pre;2;59.90908197718123;[0.016689600000063365, 0.016716699999960838, 0.0168927000001986, 0.017058199999837598];80;1;0.05066759999999704;blank.tiff;mask.tiff;-0.14;a;['left'];0.23643489999994927;0;3.327;5.403225499999962;16
190;S12;A;pre;2;59.90908197718123;[0.016519900000048438, 0.01641109999991386, 0.016521600000032777, 0.016832600000043385];45;1;0.04976529999999002;7.tif;mask.tiff;0.14;right;['right'];0.24509469999998146;1;0.562;2.64524449999999;23
191;S12;A;pre;2;59.90908197718123;[0.01724160000003394, 0.01638849999994818, 0.016925700000001598, 0.01675369999998111];74;5;0.05006789999993089;3.tif;mask.tiff;-0.14;left;['left'];0.2587446;0;0.654;2.75883500000009;84
192;S12;A;pre;2;59.90908197718123;[0.01668389999986175, 0.016975300000012794, 0.016719100000045728, 0.016416599999956816];85;3;0.05011100000001534;blank.tiff;mask.tiff;0.14;a;['right'];0.22286080000003494;0;0.812;2.872725599999967;49
193;S12;A;pre;2;59.90908197718123;[0.01649150000002919, 0.016839000000118176, 0.016632399999934933, 0.016491000000087297];81;1;0.049962400000140406;blank.tiff;mask.tiff;0.14;a;['right'];0.2992811999999958;0;0.905;3.0488679000000047;17
194;S12;A;pre;2;59.90908197718123;[0.01634809999995923, 0.015730399999938527, 0.0170212000000447, 0.017044899999973495];62;3;0.04979649999995672;8.tif;mask.tiff;-0.14;right;['right'];0.33706680000000233;1;0.818;2.982036899999912;56
195;S12;A;pre;2;59.90908197718123;[0.011183800000026167, 0.017270000000053187, 0.01616880000005949, 0.017350799999803712];47;1;0.05078959999991639;8.tif;mask.tiff;0.14;right;['left'];0.33779039999990346;0;2.634;4.804525700000113;25
196;S12;A;pre;2;59.90908197718123;[0.016907199999877776, 0.016605400000116788, 0.016341000000011263, 0.017291200000045137];53;2;0.05023760000017319;7.tif;mask.tiff;0.14;right;['right'];0.3891095999999834;1;0.656;2.888623900000084;39
197;S12;A;pre;2;59.90908197718123;[0.01690609999991466, 0.016644799999994575, 0.016677600000093662, 0.016622999999981403];6;1;0.04994540000006964;8.tif;mask.tiff;-0.14;right;['right'];0.366213499999958;1;1.181;3.3826010999998744;24
198;S12;A;pre;2;59.90908197718123;[0.016481200000043827, 0.01699600000006285, 0.016561599999931786, 0.016926399999874775];26;4;0.05048399999986941;3.tif;mask.tiff;-0.14;left;['left'];3.2774446999999327;0;1.213;6.3270800999998755;68
199;S12;A;pre;2;59.90908197718123;[0.016879100000096514, 0.015939799999841853, 0.017430600000125196, 0.01679029999991144];39;5;0.05016069999987849;8.tif;mask.tiff;0.14;right;['right'];0.4136895999999979;1;0.936;3.19660789999989;89
200;S12;A;pre;3;59.90908197718123;[0.00543599999991784, 0.01654740000003585, 0.017200100000081875, 0.015793399999893154];27;4;0.04954090000001088;3.tif;mask.tiff;0.14;left;['right'];0.6302370999999312;0;1.402;3.8963836000000356;69
201;S12;A;pre;3;59.90908197718123;[0.016768599999977596, 0.01659949999998389, 0.016695999999910782, 0.01655580000010559];87;4;0.049851300000000265;blank.tiff;mask.tiff;0.14;a;['right'];0.5071325999999772;0;1.027;3.374077400000033;65
202;S12;A;pre;3;59.90908197718123;[0.01638360000015382, 0.0168449000000237, 0.01672459999986131, 0.016895200000135446];16;3;0.05046470000002046;2.tif;mask.tiff;-0.14;left;['left'];0.7863409000001411;1;1.551;4.185600699999895;50
203;S12;A;pre;3;59.90908197718123;[0.017057699999895704, 0.01631760000009308, 0.017241699999885896, 0.01653800000008232];3;1;0.050097300000061296;3.tif;mask.tiff;0.14;left;['left'];0.46947720000002846;1;1.129;3.436115299999983;21
204;S12;A;pre;3;59.90908197718123;[0.016387099999974453, 0.01667889999998806, 0.01678900000001704, 0.01695619999986775];89;5;0.05042409999987285;blank.tiff;mask.tiff;0.14;a;['right'];0.3520665999999437;0;1.687;3.8857323999998243;81
205;S12;A;pre;3;59.90908197718123;[0.01773290000005545, 0.01593500000012682, 0.016926099999864164, 0.016898500000024796];8;2;0.04975960000001578;2.tif;mask.tiff;-0.14;left;['left'];0.40099259999988135;1;1.054;3.300801399999955;34
206;S12;A;pre;3;59.90908197718123;[0.01762619999999515, 0.015367599999990489, 0.016278599999850485, 0.016802699999971082];0;1;0.048448899999812056;2.tif;mask.tiff;-0.14;left;['left'];3.5967940000000453;0;3.885;9.330460499999845;18
207;S12;A;pre;3;59.90908197718123;[0.01692600000001221, 0.016684100000020408, 0.0168681000000106, 0.016465699999798744];97;4;0.05001789999982975;blank.tiff;mask.tiff;0.14;a;['left'];2.1269038999998884;0;3.759;7.726493699999992;65
208;S12;A;pre;3;59.90908197718123;[0.016958400000021356, 0.016731899999967936, 0.016697600000043167, 0.016635700000051656];2;1;0.05006520000006276;3.tif;mask.tiff;-0.14;left;['right'];0.7675776000000951;0;3.494;6.100938699999915;20
209;S12;A;pre;3;59.90908197718123;[0.019197999999960302, 0.016643800000110787, 0.01662969999983943, 0.016018000000030952];26;4;0.04929149999998117;3.tif;mask.tiff;-0.14;left;['left'];0.3452839000001404;0;1.208;3.4285202999999456;68
210;S12;A;pre;3;59.90908197718123;[0.017874800000072355, 0.016558999999915613, 0.016603000000031898, 0.017104999999901338];63;3;0.05026699999984885;8.tif;mask.tiff;0.14;right;['right'];0.6370676999999887;1;1.104;3.62050360000012;57
211;S12;A;pre;3;59.90908197718123;[0.015934000000015658, 0.016792199999827062, 0.0168449000000237, 0.01687010000000555];9;2;0.05050719999985631;2.tif;mask.tiff;0.14;left;['left'];0.2021698999999444;1;0.828;2.8690579999999954;35
212;S12;A;pre;3;59.90908197718123;[0.016361899999992602, 0.016808000000082757, 0.016163600000027145, 0.0169840999999451];85;3;0.049955700000055;blank.tiff;mask.tiff;0.14;a;['left'];1.4417923999999402;0;2.824;6.108187799999996;49
213;S12;A;pre;3;59.90908197718123;[0.016785199999958422, 0.01670590000003358, 0.016475000000127693, 0.016521000000011554];40;1;0.04970190000017283;2.tif;mask.tiff;-0.14;left;['left'];0.2278716999999233;1;0.739;2.8107416999998804;18
214;S12;A;pre;3;59.90908197718123;[0.016451299999971525, 0.01666550000004463, 0.016476399999874047, 0.01662930000020424];62;3;0.04977120000012292;8.tif;mask.tiff;-0.14;right;['right'];0.24075889999994615;1;0.682;2.757785199999944;56
215;S12;A;pre;3;59.90908197718123;[0.016659200000049168, 0.01682359999995242, 0.016920200000186014, 0.01610549999986688];39;5;0.049849300000005314;8.tif;mask.tiff;0.14;right;['right'];0.25082069999984924;1;0.745;2.8333546999999726;89
216;S12;A;pre;3;59.90908197718123;[0.01662809999993442, 0.016683900000089125, 0.01674589999993259, 0.016410799999903247];50;2;0.04984059999992496;3.tif;mask.tiff;-0.14;left;['left'];0.21359050000000934;0;0.853;2.897347100000161;36
217;S12;A;pre;3;59.90908197718123;[0.016990100000157327, 0.01766619999989416, 0.015959999999950014, 0.01707370000008268];83;2;0.050699899999926856;blank.tiff;mask.tiff;0.14;a;['left'];0.2824348999999984;0;0.697;2.8159063000000515;33
218;S12;A;pre;3;59.90908197718123;[0.006458500000007916, 0.01742969999986599, 0.01572959999998602, 0.01698039999996581];36;5;0.05013969999981782;7.tif;mask.tiff;-0.14;right;['right'];0.29971520000003693;1;0.661;2.8326337999999396;86
219;S12;A;pre;3;59.90908197718123;[0.015706299999919793, 0.016387699999995675, 0.016956200000095123, 0.016480199999932665];96;4;0.049824100000023464;blank.tiff;mask.tiff;-0.14;a;['left'];0.6139321999999083;0;0.666;3.1137939000000188;64
220;S12;A;pre;3;59.90908197718123;[0.0067604999999275606, 0.016732000000047265, 0.016654799999969327, 0.01660560000004807];24;4;0.04999240000006466;2.tif;mask.tiff;-0.14;left;['left'];0.2716864000001351;1;1.316;3.438314300000002;66
221;S12;A;pre;3;59.90908197718123;[0.01672510000003058, 0.016782299999931638, 0.020153299999947194, 0.012720800000124655];37;5;0.04965640000000349;7.tif;mask.tiff;0.14;right;['right'];0.4621560999999019;1;1.413;3.7117481000000225;87
222;S12;A;pre;3;59.90908197718123;[0.016387299999905736, 0.01704860000018016, 0.016772999999830063, 0.016464799999994284];45;1;0.050286400000004505;7.tif;mask.tiff;0.14;right;['right'];0.17393199999992248;1;0.8;2.8069404000000304;23
223;S12;A;pre;3;59.90908197718123;[0.01703529999986131, 0.017153400000097463, 0.0165122999999312, 0.0163950000001023];34;5;0.050060700000130964;3.tif;mask.tiff;-0.14;left;['left'];0.1412688000000344;1;0.636;2.6081956000000446;84
224;S12;A;pre;3;59.90908197718123;[0.017221300000073825, 0.01573340000004464, 0.01746909999997115, 0.01624889999993684];93;2;0.04945139999995263;blank.tiff;mask.tiff;0.14;a;['right'];0.3063927999999123;1;4.352;6.489819399999988;33
225;S12;A;pre;3;59.90908197718123;[0.017013700000006793, 0.01693539999996574, 0.016488600000002407, 0.01628530000016326];58;3;0.04970930000013141;3.tif;mask.tiff;-0.14;left;['left'];0.3600265000000036;0;1.809;4.009489799999983;52
226;S12;A;pre;3;59.90908197718123;[0.016464499999983673, 0.016248599999926228, 0.017230899999958638, 0.016155499999968015];99;5;0.04963499999985288;blank.tiff;mask.tiff;0.14;a;['right'];0.24289780000003702;0;0.925;3.625801899999942;81
227;S12;A;pre;3;59.90908197718123;[0.017488399999820103, 0.0159848000000693, 0.01653200000009747, 0.017069999999876018];29;4;0.049586800000042786;7.tif;mask.tiff;0.14;right;['right'];0.33628859999998895;1;1.016;3.1877059999999346;71
228;S12;A;pre;3;59.90908197718123;[0.014609900000095877, 0.018201500000031956, 0.01542169999993348, 0.017547599999943486];32;5;0.05117079999990892;2.tif;mask.tiff;-0.14;left;['left'];0.3144402000000355;1;1.283;3.430967199999941;82
229;S12;A;pre;3;59.90908197718123;[0.016742100000101345, 0.016687499999989086, 0.01676909999991949, 0.016171100000065053];59;3;0.04962769999997363;3.tif;mask.tiff;0.14;left;['left'];0.748050400000011;0;3.436;6.030840399999988;53
230;S12;A;pre;3;59.90908197718123;[0.01657969999996567, 0.018759100000124818, 0.014439300000049116, 0.016856899999993402];41;1;0.050055300000167335;2.tif;mask.tiff;0.14;left;['left'];0.6043185000000904;0;1.288;3.7373903999998674;19
231;S12;A;pre;3;59.90908197718123;[0.016968500000075437, 0.017180600000074264, 0.016267299999981333, 0.016763899999887144];55;2;0.05021179999994274;8.tif;mask.tiff;0.14;right;['left'];0.5886451999999736;0;0.793;3.2214527000001;41
232;S12;A;pre;3;59.90908197718123;[0.015950299999985873, 0.01672469999994064, 0.017884300000105213, 0.01584879999995792];20;3;0.05045780000000377;7.tif;mask.tiff;-0.14;right;['right'];0.241309499999943;1;0.656;2.7414106999999603;54
233;S12;A;pre;3;59.90908197718123;[0.013212399999929403, 0.017166900000120222, 0.016193200000088837, 0.016267900000002555];80;1;0.049628000000211614;blank.tiff;mask.tiff;-0.14;a;['left'];0.2572706000000835;0;0.635;2.7232803000001695;16
234;S12;A;pre;3;59.90908197718123;[0.016761099999939688, 0.01720559999989746, 0.016229500000008557, 0.016359200000124474];56;3;0.04979430000003049;2.tif;mask.tiff;-0.14;left;['left'];0.29089730000009695;1;0.696;2.824692299999924;50
235;S12;A;pre;3;59.90908197718123;[0.0161147000001165, 0.016827399999783665, 0.016511700000137353, 0.01667320000001382];72;5;0.05001229999993484;2.tif;mask.tiff;-0.14;left;['left'];0.24462149999999383;1;0.683;2.7610157999999956;82
236;S12;A;pre;3;59.90908197718123;[0.016869199999973716, 0.016542399999934787, 0.016474499999958425, 0.01756670000008853];10;2;0.05058359999998174;3.tif;mask.tiff;-0.14;left;['left'];0.8529146999999284;1;0.963;3.65322429999992;36
237;S12;A;pre;3;59.90908197718123;[0.016746000000011918, 0.01659679999988839, 0.01689770000007229, 0.016613799999959156];44;1;0.050108299999919836;7.tif;mask.tiff;-0.14;right;['right'];0.25797370000009323;1;0.906;3.00788220000004;22
238;S12;A;pre;3;59.90908197718123;[0.017258000000083484, 0.01667360000010376, 0.01638379999985773, 0.01650640000002568];73;5;0.04956379999998717;2.tif;mask.tiff;0.14;left;['left'];0.20348509999985254;1;0.877;2.920041599999877;83
239;S12;A;pre;3;59.90908197718123;[0.016858199999887802, 0.016385700000000725, 0.016487300000108007, 0.01763000000005377];11;2;0.0505030000001625;3.tif;mask.tiff;0.14;left;['left'];0.47793640000008963;0;0.938;3.261481700000104;37
240;S12;A;pre;3;59.90908197718123;[0.017443400000047404, 0.01707710000005136, 0.016516299999921102, 0.016127999999980602];54;2;0.049721399999953064;8.tif;mask.tiff;-0.14;right;['right'];0.32310720000009496;1;1.008;3.1737383000001955;40
241;S12;A;pre;3;59.90908197718123;[0.016816999999946347, 0.01680700000019897, 0.016626499999802036, 0.016627299999981915];67;4;0.05006079999998292;3.tif;mask.tiff;0.14;left;['left'];0.7124828999999409;0;1.162;3.7123827000000347;69
242;S12;A;pre;3;59.90908197718123;[0.017140100000005987, 0.016517300000032265, 0.016387599999916347, 0.01680150000015601];7;1;0.04970640000010462;8.tif;mask.tiff;0.14;right;['right'];0.30540289999999004;1;1.07;3.22245769999995;25
243;S12;A;pre;3;59.90908197718123;[0.016138400000045294, 0.01731959999983701, 0.01622370000018236, 0.016586299999971743];33;5;0.050129599999991115;2.tif;mask.tiff;0.14;left;['right'];0.3095651999999518;0;1.41;3.5611372999999276;83
244;S12;A;pre;3;59.90908197718123;[0.015051900000116802, 0.016855800000030285, 0.016636999999946056, 0.016489800000044852];70;4;0.04998260000002119;8.tif;mask.tiff;-0.14;right;['right'];0.2667103000001134;0;2.161;4.266948199999888;72
245;S12;A;pre;3;59.90908197718123;[0.015482300000030591, 0.01692300000013347, 0.016238499999872147, 0.017170999999962078];95;3;0.050332499999967695;blank.tiff;mask.tiff;0.14;a;['left'];0.2214072000001579;0;0.691;2.754776300000003;49
246;S12;A;pre;3;59.90908197718123;[0.017002200000206358, 0.015986299999894982, 0.016526099999964572, 0.016948899999988498];71;4;0.04946129999984805;8.tif;mask.tiff;0.14;right;['right'];0.2066727000001265;0;0.59;2.6397128999999495;73
247;S12;A;pre;3;59.90908197718123;[0.01658440000005612, 0.016180599999870537, 0.01623769999991964, 0.016903300000194577];64;4;0.049321599999984755;2.tif;mask.tiff;-0.14;left;['left'];0.3326242999999067;1;1.031;3.199009799999885;66
248;S12;A;pre;3;59.90908197718123;[0.015979300000026342, 0.017354500000010376, 0.016360699999950157, 0.01669749999996384];38;5;0.05041269999992437;8.tif;mask.tiff;-0.14;right;['left'];2.0745699999999943;0;2.509;6.4250677;88
249;S12;A;pre;3;59.90908197718123;[0.016859300000078292, 0.016426200000069002, 0.017053300000043237, 0.016251599999804967];25;4;0.049731099999917205;2.tif;mask.tiff;0.14;left;['left'];0.31921079999983704;1;1.476;3.6355455000000347;67
250;S12;A;pre;3;59.90908197718123;[0.016951699999935954, 0.016446200000018507, 0.016796899999917514, 0.016871199999968667];6;1;0.05011429999990469;8.tif;mask.tiff;-0.14;right;['right'];0.19744439999999486;1;0.731;2.764863000000105;24
251;S12;A;pre;3;59.90908197718123;[0.017148200000065117, 0.01683909999997013, 0.016392700000096738, 0.016382399999884];12;2;0.04961419999995087;7.tif;mask.tiff;-0.14;right;['right'];0.5232029000001148;1;0.858;3.222924199999852;38
252;S12;A;pre;3;59.90908197718123;[0.016751600000134204, 0.017580100000031962, 0.016206299999794282, 0.016782100000000355];19;3;0.0505684999998266;3.tif;mask.tiff;0.14;left;['left'];0.6129711999999472;0;2.67;5.129367000000002;53
253;S12;A;pre;3;59.90908197718123;[0.016722500000014406, 0.017008499999974447, 0.016459800000120595, 0.01657899999986512];49;2;0.05004729999996016;2.tif;mask.tiff;0.14;left;['right'];0.5989955000000009;0;3.913;6.34895900000015;35
254;S12;A;pre;3;59.90908197718123;[0.01659339999991971, 0.016783999999915977, 0.01632340000014665, 0.0166725999999926];91;1;0.049780000000055225;blank.tiff;mask.tiff;0.14;a;['left'];0.2093409999999949;0;0.807;3.4425765999999385;17
255;S12;A;pre;3;59.90908197718123;[0.016202300000031755, 0.01701839999986987, 0.016322900000204754, 0.017017699999996694];53;2;0.05035900000007132;7.tif;mask.tiff;0.14;right;['right'];0.2129646999999295;1;0.682;2.7294167000000016;39
256;S12;A;pre;3;59.90908197718123;[0.016808199999786666, 0.016250800000079835, 0.016791300000022602, 0.016806399999950372];66;4;0.04984850000005281;3.tif;mask.tiff;-0.14;left;['left'];0.1793404999998529;0;1.069;3.096559399999933;68
257;S12;A;pre;3;59.90908197718123;[0.017065100000081657, 0.017056700000011915, 0.01612199999999575, 0.01654699999994591];74;5;0.049725699999953576;3.tif;mask.tiff;-0.14;left;['left'];0.3355454000000009;1;1.087;3.2690736000001834;84
258;S12;A;pre;3;59.90908197718123;[0.015576400000099966, 0.016646900000068854, 0.016416899999967427, 0.016959699999915756];86;4;0.05002349999995204;blank.tiff;mask.tiff;-0.14;a;['right'];0.6587727000000996;0;4.215;6.707542800000056;64
259;S12;A;pre;3;59.90908197718123;[0.016604800000095565, 0.016524399999980233, 0.017278900000064823, 0.016726199999993696];82;2;0.05052950000003875;blank.tiff;mask.tiff;-0.14;a;['left'];0.32696549999991475;0;4.048;6.2103901000000405;32
260;S12;A;pre;3;59.90908197718123;[0.016935499999817694, 0.01635430000010274, 0.01698349999992388, 0.016548000000057073];43;1;0.04988580000008369;3.tif;mask.tiff;0.14;left;['left'];0.32266089999984615;0;1.02;3.173206000000164;21
261;S12;A;pre;3;59.90908197718123;[0.016657299999906172, 0.0167972000001555, 0.016787499999963984, 0.01758960000006482];65;4;0.0511743000001843;2.tif;mask.tiff;0.14;left;['left'];0.5845491000000038;1;1.744;4.167933799999901;67
262;S12;A;pre;3;59.90908197718123;[0.016715100000055827, 0.015901799999937793, 0.016156099999989237, 0.01746769999999742];57;3;0.04952559999992445;2.tif;mask.tiff;0.14;left;['left'];1.1644776999999067;1;0.836;4.980795199999875;51
263;S12;A;pre;3;59.90908197718123;[0.016892500000039945, 0.017141799999990326, 0.016541199999892342, 0.017000900000084584];15;2;0.05068389999996725;8.tif;mask.tiff;0.14;right;['left'];0.6215901000000486;0;1.159;3.6379689999998845;41
264;S12;A;pre;3;59.90908197718123;[0.016946199999892997, 0.01639170000021295, 0.016953899999862188, 0.016450200000008408];13;2;0.049795800000083545;7.tif;mask.tiff;0.14;right;['right'];0.34663640000007945;1;1.436;3.6296936999999616;39
265;S12;A;pre;3;59.90908197718123;[0.013271499999973457, 0.01688360000002831, 0.016522399999985282, 0.017036799999914365];47;1;0.050442799999927956;8.tif;mask.tiff;0.14;right;['right'];0.4210272000000259;0;3.194;5.4544625999999425;25
266;S12;A;pre;3;59.90908197718123;[0.015322700000069744, 0.016938299999992523, 0.01622870000005605, 0.01679669999998623];90;1;0.049963700000034805;blank.tiff;mask.tiff;-0.14;a;['left'];0.3657711000000745;0;0.813;3.015273499999921;16
267;S12;A;pre;3;59.90908197718123;[0.013810599999942497, 0.01646970000001602, 0.01562839999996868, 0.016879700000117737];21;3;0.048977800000102434;7.tif;mask.tiff;0.14;right;['right'];0.4170308999998724;1;2.33;4.584076600000117;55
268;S12;A;pre;3;59.90908197718123;[0.016834199999948396, 0.01638860000002751, 0.01682740000001104, 0.016813999999840235];61;3;0.05002999999987878;7.tif;mask.tiff;0.14;right;['right'];0.29302389999998013;1;0.87;3.009342199999992;55
269;S12;A;pre;3;59.90908197718123;[0.013355799999999363, 0.015913200000113648, 0.01687669999978425, 0.016628600000103688];5;1;0.049418500000001586;7.tif;mask.tiff;0.14;right;['right'];0.33272420000002967;1;0.934;3.13261609999995;23
270;S12;A;pre;3;59.90908197718123;[0.01620849999994789, 0.017550700000128927, 0.015734500000007756, 0.01805859999990389];69;4;0.051343800000040574;7.tif;mask.tiff;0.14;right;['left'];0.27232789999993656;0;2.562;4.673369899999898;71
271;S12;A;pre;3;59.90908197718123;[0.016640499999994063, 0.016727199999877485, 0.016981700000087585, 0.016646399999899586];22;3;0.050355299999864656;8.tif;mask.tiff;-0.14;right;['left'];1.1387636999997994;1;1.683;4.655851499999926;56
272;S12;A;pre;3;59.90908197718123;[0.01734529999998813, 0.0165441000001465, 0.01645650000000387, 0.01698959999998806];84;3;0.04999020000013843;blank.tiff;mask.tiff;-0.14;a;['left'];0.1795720000000074;0;0.699;2.712707899999941;48
273;S12;A;pre;3;59.90908197718123;[0.015449499999931504, 0.016585899999881804, 0.01665950000005978, 0.016413000000056854];52;2;0.04965839999999844;7.tif;mask.tiff;-0.14;right;['right'];0.23678890000019237;1;0.789;3.486174599999913;38
274;S12;A;pre;3;59.90908197718123;[0.014536200000065946, 0.01557209999987208, 0.01709249999998974, 0.016481200000043827];94;3;0.04914579999990565;blank.tiff;mask.tiff;-0.14;a;['left'];0.2407828000000336;0;0.838;2.940116499999931;48
275;S12;A;pre;3;59.90908197718123;[0.016977600000018356, 0.016563199999836797, 0.01702690000001894, 0.016031699999984994];78;5;0.04962179999984073;8.tif;mask.tiff;-0.14;right;['right'];0.3300731000001633;1;1.58;3.7459762000000865;88
276;S12;A;pre;3;59.90908197718123;[0.01671740000006139, 0.0166613999999754, 0.016412199999876975, 0.01686510000013186];23;3;0.04993869999998424;8.tif;mask.tiff;0.14;right;['right'];0.30539040000007844;1;0.844;2.988162000000102;57
277;S12;A;pre;3;59.90908197718123;[0.01356509999982336, 0.01690890000008949, 0.015831800000114526, 0.017449299999952927];81;1;0.05019000000015694;blank.tiff;mask.tiff;0.14;a;['right'];0.3821074999998473;0;0.769;2.9984239000000343;17
278;S12;A;pre;3;59.90908197718123;[0.016648600000053193, 0.01674389999993764, 0.016911000000163767, 0.016375499999867316];14;2;0.05003039999996872;8.tif;mask.tiff;-0.14;right;['left'];0.8498316999998679;0;1.728;4.416688000000022;40
279;S12;A;pre;3;59.90908197718123;[0.01688160000003336, 0.0168349999999009, 0.016931500000055166, 0.016547899999977744];92;2;0.05031439999993381;blank.tiff;mask.tiff;-0.14;a;['left'];1.7006198999999924;0;1.107;4.650241499999993;32
280;S12;A;pre;3;59.90908197718123;[0.01724859999990258, 0.016279800000120304, 0.0168065000000297, 0.016659699999991062];48;2;0.049746000000141066;2.tif;mask.tiff;-0.14;left;['left'];0.5604233999999906;0;1.403;3.8101050000000214;34
281;S12;A;pre;3;59.90908197718123;[0.01675499999987551, 0.0167164000001776, 0.016574499999933323, 0.017113599999902362];28;4;0.050404500000013286;7.tif;mask.tiff;-0.14;right;['left'];0.8002480999998625;0;2.459;5.100451600000042;70
282;S12;A;pre;3;59.90908197718123;[0.016655300000138595, 0.01641380000000936, 0.016936799999939467, 0.01647329999991598];46;1;0.04982389999986481;8.tif;mask.tiff;-0.14;right;['right'];0.2534372000000076;1;0.712;2.803634699999975;24
283;S12;A;pre;3;59.90908197718123;[0.015726600000107283, 0.01731789999985267, 0.015895100000079765, 0.01714429999992717];1;1;0.050357299999859606;2.tif;mask.tiff;0.14;left;['left'];0.2127322000001186;1;0.72;2.7801566999999068;19
284;S12;A;pre;3;59.90908197718123;[0.013969699999961449, 0.01690140000005158, 0.01639179999983753, 0.016921200000069803];88;5;0.050214399999958914;blank.tiff;mask.tiff;-0.14;a;['left'];1.1860027000000173;1;2.293;5.318734899999981;80
285;S12;A;pre;3;59.90908197718123;[0.016547299999956522, 0.016871700000137935, 0.016350800000054733, 0.017061599999806276];31;4;0.050284099999998944;8.tif;mask.tiff;0.14;right;['left'];0.32752000000004955;0;2.87;5.043561599999975;73
286;S12;A;pre;3;59.90908197718123;[0.016706399999975474, 0.016537799999923664, 0.01667059999999765, 0.016942700000072364];79;5;0.050151099999993676;8.tif;mask.tiff;0.14;right;['left'];1.8159719000000223;0;2.893;6.549211400000104;89
287;S12;A;pre;3;59.90908197718123;[0.017700800000056915, 0.016393699999980527, 0.016288400000121328, 0.016054499999881955];30;4;0.04873659999998381;8.tif;mask.tiff;-0.14;right;['left'];0.8270301999998537;1;1.576;4.243529399999943;72
288;S12;A;pre;3;59.90908197718123;[0.016493999999966036, 0.016541100000040387, 0.017085800000131712, 0.016537699999844335];77;5;0.050164600000016435;7.tif;mask.tiff;0.14;right;['right'];0.1688810000000558;1;1.214;3.2188578000000234;87
289;S12;A;pre;3;59.90908197718123;[0.0169992999999522, 0.01642819999983658, 0.016976300000123956, 0.01673920000007456];18;3;0.050143700000035096;3.tif;mask.tiff;-0.14;left;['left'];0.2924221000000671;1;0.783;2.907920299999887;52
290;S12;A;pre;3;59.90908197718123;[0.012799399999948946, 0.015722999999979947, 0.02056680000009692, 0.012811199999987366];75;5;0.04910100000006423;3.tif;mask.tiff;0.14;left;['left'];0.3557898000001387;0;0.707;2.906615399999964;85
291;S12;A;pre;3;59.90908197718123;[0.01570809999998346, 0.016258900000138965, 0.016442099999949278, 0.017013899999938076];98;5;0.04971490000002632;blank.tiff;mask.tiff;-0.14;a;['left'];0.48838230000001204;0;0.786;3.1050836999997955;80
292;S12;A;pre;3;59.90908197718123;[0.016757200000029115, 0.01694679999991422, 0.016686000000163403, 0.016813100000035774];76;5;0.0504459000001134;7.tif;mask.tiff;-0.14;right;['right'];0.23680960000001505;1;1.178;3.2540917000001173;86
293;S12;A;pre;3;59.90908197718123;[0.016927799999848503, 0.016317699999945035, 0.016408700000056342, 0.016914700000143057];51;2;0.049641100000144434;3.tif;mask.tiff;0.14;left;['left'];0.4036068000000341;0;1.613;3.853554400000121;37
294;S12;A;pre;3;59.90908197718123;[0.016501800000014555, 0.01609229999985473, 0.017470700000103534, 0.0163783999998941];4;1;0.049941399999852365;7.tif;mask.tiff;-0.14;right;['right'];0.2947920999999951;1;0.923;3.061448299999938;22
295;S12;A;pre;3;59.90908197718123;[0.016210400000090885, 0.0172192999998515, 0.015861999999970067, 0.016645200000084515];35;5;0.04972649999990608;3.tif;mask.tiff;0.14;left;['left'];0.9714378999999553;1;1.826;4.637636200000088;85
296;S12;A;pre;3;59.90908197718123;[0.016082399999959307, 0.01725669999996171, 0.016435600000022532, 0.016283100000009654];17;3;0.0499753999999939;2.tif;mask.tiff;0.14;left;['right'];1.0654188999999405;0;1.724;4.632058099999767;51
297;S12;A;pre;3;59.90908197718123;[0.016082900000128575, 0.01725410000017291, 0.015437299999575771, 0.017489900000327907];60;3;0.05018130000007659;7.tif;mask.tiff;-0.14;right;['right'];0.26959409999972195;1;0.639;2.752427500000067;54
298;S12;A;pre;3;59.90908197718123;[0.017263100000036502, 0.016104400000131136, 0.015773299999636947, 0.017373800000314077];68;4;0.04925150000008216;7.tif;mask.tiff;-0.14;right;['right'];0.26516040000024077;1;1.062;3.165049100000033;70
299;S12;A;pre;3;59.90908197718123;[0.017243299999790906, 0.016215699999975186, 0.016639600000416976, 0.016885199999705947];42;1;0.04974050000009811;3.tif;mask.tiff;-0.14;left;['left'];0.23089489999983925;1;0.773;2.846865500000149;20
300;S12;A;pre;4;59.90908197718123;[0.016704699999991135, 0.016739000000143278, 0.016709199999695556, 0.01684160000013435];20;3;0.050289799999973184;7.tif;mask.tiff;-0.14;right;['right'];0.28597309999986464;1;0.803;2.9358820000002197;54
301;S12;A;pre;4;59.90908197718123;[0.016624599999886414, 0.016810699999950884, 0.017147100000329374, 0.01648399999976391];71;4;0.05044180000004417;8.tif;mask.tiff;0.14;right;['right'];0.23306800000000294;0;0.828;2.8996705000004113;73
302;S12;A;pre;4;59.90908197718123;[0.01676629999974466, 0.017673500000000786, 0.015547900000001391, 0.016654000000016822];32;5;0.049875400000019;2.tif;mask.tiff;-0.14;left;['left'];0.28475620000017443;1;0.848;2.9683522000000266;82
303;S12;A;pre;4;59.90908197718123;[0.013042399999903864, 0.016627999999855092, 0.01647750000029191, 0.01663349999989805];90;1;0.04973900000004505;blank.tiff;mask.tiff;-0.14;a;['right'];0.2975231000000349;0;0.826;2.9636829999999463;16
304;S12;A;pre;4;59.90908197718123;[0.01733879999983401, 0.01606320000018968, 0.01668100000006234, 0.017129999999724532];84;3;0.049874199999976554;blank.tiff;mask.tiff;-0.14;a;['right'];0.36260419999962323;0;1.058;3.262572899999668;48
305;S12;A;pre;4;59.90908197718123;[0.016258899999684218, 0.017108900000039284, 0.01595190000034563, 0.016865299999608396];67;4;0.04992609999999331;3.tif;mask.tiff;0.14;left;['left'];0.6605313999998543;0;1.593;4.0932762000002185;69
306;S12;A;pre;4;59.90908197718123;[0.01742980000017269, 0.015516499999648659, 0.016350300000340212, 0.016961299999820767];77;5;0.04882809999980964;7.tif;mask.tiff;0.14;right;['right'];0.46190089999981865;1;0.969;3.278433899999982;87
307;S12;A;pre;4;59.90908197718123;[0.016357200000129524, 0.017102499999964493, 0.016099099999792088, 0.016880399999990914];7;1;0.050081999999747495;8.tif;mask.tiff;0.14;right;['left'];0.27732590000005075;0;1.505;3.6602827000001525;25
308;S12;A;pre;4;59.90908197718123;[0.01638200000024881, 0.01649970000016765, 0.016756399999849236, 0.016641700000036508];54;2;0.049897800000053394;8.tif;mask.tiff;-0.14;right;['right'];0.8402851000000737;1;1.471;4.156695000000127;40
309;S12;A;pre;4;59.90908197718123;[0.016860299999734707, 0.016180999999960477, 0.01660360000005312, 0.017323099999885017];33;5;0.050107699999898614;2.tif;mask.tiff;0.14;left;['left'];0.23787839999977223;1;0.826;2.9043407999997726;83
310;S12;A;pre;4;59.90908197718123;[0.017997200000081648, 0.016073100000085105, 0.016962599999715167, 0.016811299999972107];65;4;0.04984699999977238;2.tif;mask.tiff;0.14;left;['left'];0.3014038999999684;1;0.752;2.9344599000000926;67
311;S12;A;pre;4;59.90908197718123;[0.016604699999788863, 0.016421900000295864, 0.016836199999943346, 0.01707029999988663];24;4;0.05032840000012584;2.tif;mask.tiff;-0.14;left;['left'];0.35754369999995106;1;1.703;3.9074633999998696;66
312;S12;A;pre;4;59.90908197718123;[0.016881199999716046, 0.01610849999997299, 0.017379500000060943, 0.01628260000006776];29;4;0.049770600000101695;7.tif;mask.tiff;0.14;right;['right'];0.31110569999964355;1;1.022;3.1778510999997707;71
313;S12;A;pre;4;59.90908197718123;[0.016491899999891757, 0.01690580000013142, 0.016247300000031828, 0.01684660000000804];76;5;0.04999970000017129;7.tif;mask.tiff;-0.14;right;['right'];0.31784269999980097;1;0.792;2.9513222999999016;86
314;S12;A;pre;4;59.90908197718123;[0.01726460000008956, 0.016574799999943934, 0.017304699999840523, 0.016387000000122498];66;4;0.050266499999906955;3.tif;mask.tiff;-0.14;left;['left'];0.38130569999975705;0;1.405;3.6317897999997513;68
315;S12;A;pre;4;59.90908197718123;[0.016972500000065338, 0.016758300000219606, 0.016922499999964202, 0.016800399999738147];9;2;0.050481199999921955;2.tif;mask.tiff;0.14;left;['left'];0.4273473000002923;0;2.344;4.610820599999897;35
316;S12;A;pre;4;59.90908197718123;[0.016531100000065635, 0.016374899999846093, 0.016605599999820697, 0.01714720000018133];19;3;0.05012769999984812;3.tif;mask.tiff;0.14;left;['left'];0.11357150000003458;0;0.812;2.779127900000276;53
317;S12;A;pre;4;59.90908197718123;[0.016501500000231317, 0.01709039999968809, 0.016422099999999773, 0.01715150000018184];81;1;0.0506639999998697;blank.tiff;mask.tiff;0.14;a;['left'];0.15222700000003897;0;0.873;2.868347099999937;17
318;S12;A;pre;4;59.90908197718123;[0.0167116999996324, 0.016171500000382366, 0.016665699999975914, 0.016605299999810086];85;3;0.049442500000168366;blank.tiff;mask.tiff;0.14;a;['right'];0.19707740000012564;0;0.737;2.7807920999998714;49
319;S12;A;pre;4;59.90908197718123;[0.016173299999991286, 0.01727519999985816, 0.016424100000222097, 0.016305199999806064];99;5;0.05000449999988632;blank.tiff;mask.tiff;0.14;a;['right'];0.21179299999994328;0;0.844;2.8949876000001495;81
320;S12;A;pre;4;59.90908197718123;[0.016803499999696214, 0.01681830000006812, 0.016565299999911076, 0.01659800000015821];60;3;0.049981600000137405;7.tif;mask.tiff;-0.14;right;['left'];0.748272100000122;0;1.44;4.031290700000227;54
321;S12;A;pre;4;59.90908197718123;[0.016456700000162527, 0.016568899999583664, 0.01690580000013142, 0.016579300000103103];10;2;0.05005399999981819;3.tif;mask.tiff;-0.14;left;['left'];0.3343448000000535;0;2.195;4.36716800000022;36
322;S12;A;pre;4;59.90908197718123;[0.016201400000227295, 0.01701409999986936, 0.016659100000197213, 0.016998600000079023];23;3;0.050671800000145595;8.tif;mask.tiff;0.14;right;['right'];0.26355770000009215;1;0.626;2.729683500000192;57
323;S12;A;pre;4;59.90908197718123;[0.016280400000141526, 0.016565999999784253, 0.01680160000023534, 0.017111799999838695];78;5;0.05047939999985829;8.tif;mask.tiff;-0.14;right;['left'];0.2749738000002253;0;0.881;2.991522900000291;88
324;S12;A;pre;4;59.90908197718123;[0.017056500000308006, 0.016254599999683705, 0.016327799999999115, 0.01735350000035396];35;5;0.04993590000003678;3.tif;mask.tiff;0.14;left;['right'];0.28767870000001494;0;0.808;2.9373788000002605;85
325;S12;A;pre;4;59.90908197718123;[0.015534699999989243, 0.016304799999943498, 0.017214100000273902, 0.015845799999624433];59;3;0.04936469999984183;3.tif;mask.tiff;0.14;left;['left'];0.632374400000117;0;0.911;3.382498899999973;53
326;S12;A;pre;4;59.90908197718123;[0.01701339999999618, 0.016553399999793328, 0.01730100000031598, 0.016416899999967427];64;4;0.050271300000076735;2.tif;mask.tiff;-0.14;left;['left'];0.2819360000003144;1;0.838;2.9701258000000053;66
327;S12;A;pre;4;59.90908197718123;[0.011817900000096415, 0.017244300000129442, 0.016607099999873753, 0.016391699999985576];57;3;0.05024309999998877;2.tif;mask.tiff;0.14;left;['left'];0.2395755000002282;1;0.682;2.7575317000000723;51
328;S12;A;pre;4;59.90908197718123;[0.016166599999905884, 0.01668130000007295, 0.01663719999987734, 0.01643100000001141];96;4;0.0497494999999617;blank.tiff;mask.tiff;-0.14;a;['left'];0.5377840999999535;0;0.712;3.087109000000055;64
329;S12;A;pre;4;59.90908197718123;[0.011461900000085734, 0.016759499999807304, 0.016887400000086927, 0.01685349999979735];53;2;0.05050039999969158;7.tif;mask.tiff;0.14;right;['right'];0.4181502999999793;1;1.874;4.132407500000227;39
330;S12;A;pre;4;59.90908197718123;[0.016951999999946565, 0.016548000000057073, 0.016123599999900762, 0.017668899999989662];91;1;0.0503404999999475;blank.tiff;mask.tiff;0.14;a;['right'];0.47172009999985676;0;0.896;3.204796200000146;17
331;S12;A;pre;4;59.90908197718123;[0.016004899999643385, 0.01688030000013896, 0.016830900000059046, 0.020227299999987736];45;1;0.05393850000018574;7.tif;mask.tiff;0.14;right;['right'];0.21990180000011605;1;0.611;2.6867197999999917;23
332;S12;A;pre;4;59.90908197718123;[0.014790199999879405, 0.0170444000000316, 0.016305000000102154, 0.01629899999988993];46;1;0.049648400000023685;8.tif;mask.tiff;-0.14;right;['left'];1.964869599999929;0;4.188;7.9974748999998155;24
333;S12;A;pre;4;59.90908197718123;[0.016518700000233366, 0.0163644999997814, 0.016139300000304502, 0.017065399999864894];49;2;0.0495691999999508;2.tif;mask.tiff;0.14;left;['left'];0.3120887000000039;1;1.104;3.2626705000002403;35
334;S12;A;pre;4;59.90908197718123;[0.014526299999943149, 0.01703529999986131, 0.01613279999992301, 0.016841500000282394];43;1;0.05000960000006671;3.tif;mask.tiff;0.14;left;['left'];0.3935743000001821;0;0.909;3.143201599999884;21
335;S12;A;pre;4;59.90908197718123;[0.016219699999965087, 0.017413999999916996, 0.015964199999871198, 0.016952900000433146];30;4;0.05033110000022134;8.tif;mask.tiff;-0.14;right;['right'];0.6644331999996211;1;0.815;3.313964599999963;72
336;S12;A;pre;4;59.90908197718123;[0.016702299999906245, 0.016789799999969546, 0.016556500000206142, 0.016241899999840825];37;5;0.049588200000016514;7.tif;mask.tiff;0.14;right;['right'];0.2823406000002251;1;0.673;2.800060399999893;87
337;S12;A;pre;4;59.90908197718123;[0.016182100000150967, 0.016314699999838922, 0.01678700000002209, 0.01657070000010208];88;5;0.04967239999996309;blank.tiff;mask.tiff;-0.14;a;['right'];0.32659860000012486;1;1.245;3.409952699999849;80
338;S12;A;pre;4;59.90908197718123;[0.016449400000055903, 0.017096000000037748, 0.016248599999926228, 0.017167999999855965];15;2;0.05051259999981994;8.tif;mask.tiff;0.14;right;['left'];0.2777086999999483;0;0.923;3.0440027999998165;41
339;S12;A;pre;4;59.90908197718123;[0.014747100000022328, 0.01757499999985157, 0.016786900000170135, 0.016275899999982357];8;2;0.05063780000000406;2.tif;mask.tiff;-0.14;left;['left'];0.24814310000010664;1;1.3;3.3804755999999543;34
340;S12;A;pre;4;59.90908197718123;[0.015593300000091403, 0.016264200000023266, 0.017102799999975105, 0.01632450000033714];22;3;0.04969150000033551;8.tif;mask.tiff;-0.14;right;['right'];0.24932580000040616;1;0.702;2.7994974000002912;56
341;S12;A;pre;4;59.90908197718123;[0.01652860000012879, 0.016628700000183017, 0.016191199999866512, 0.017306400000052236];79;5;0.050126300000101764;8.tif;mask.tiff;0.14;right;['right'];0.25708339999982854;1;0.754;2.8570432000001347;89
342;S12;A;pre;4;59.90908197718123;[0.016308499999922788, 0.016784999999799766, 0.01699060000009922, 0.017273200000090583];3;1;0.05104879999998957;3.tif;mask.tiff;0.14;left;['left'];0.2269272000003184;0;1.905;3.9764992999998867;21
343;S12;A;pre;4;59.90908197718123;[0.016950700000052166, 0.016295500000069296, 0.01676469999983965, 0.017279400000006717];62;3;0.05033959999991566;8.tif;mask.tiff;-0.14;right;['right'];0.39262579999967784;0;1.258;3.491792400000122;56
344;S12;A;pre;4;59.90908197718123;[0.017006799999762734, 0.016394499999933032, 0.016264500000033877, 0.017386699999860866];97;4;0.050045699999827775;blank.tiff;mask.tiff;0.14;a;['left'];0.720757500000218;0;1.077;3.6372261999999864;65
345;S12;A;pre;4;59.90908197718123;[0.015941499999826192, 0.016562100000101054, 0.017287900000155787, 0.01621069999964675];92;2;0.05006069999990359;blank.tiff;mask.tiff;-0.14;a;['right'];0.418846499999745;0;1.189;3.4517265999998017;32
346;S12;A;pre;4;59.90908197718123;[0.016214600000239443, 0.017207999999754975, 0.016354299999875366, 0.0170298000002731];42;1;0.05059209999990344;3.tif;mask.tiff;-0.14;left;['left'];0.6235388000000057;0;1.489;3.956177200000184;20
347;S12;A;pre;4;59.90908197718123;[0.012595000000146683, 0.0173835999999028, 0.01643130000002202, 0.016320600000199192];68;4;0.05013550000012401;7.tif;mask.tiff;-0.14;right;['right'];0.21298650000017005;1;0.626;2.6796620000000075;70
348;S12;A;pre;4;59.90908197718123;[0.01457620000019233, 0.016685300000062853, 0.01648299999988012, 0.016618799999832845];18;3;0.04978709999977582;3.tif;mask.tiff;-0.14;left;['left'];0.24581519999992452;1;0.812;2.8952472999999372;52
349;S12;A;pre;4;59.90908197718123;[0.016342099999747006, 0.01624710000032792, 0.016512199999851873, 0.016459200000099372];44;1;0.049218500000279164;7.tif;mask.tiff;-0.14;right;['right'];0.2918414999999186;1;1.205;3.3415695000003325;22
350;S12;A;pre;4;59.90908197718123;[0.010742899999968358, 0.016906399999697896, 0.01676370000041061, 0.01685989999987214];5;1;0.050529999999980646;7.tif;mask.tiff;0.14;right;['right'];0.26349190000019007;1;0.808;2.9302371000003404;23
351;S12;A;pre;4;59.90908197718123;[0.01651240000001053, 0.01693599999998696, 0.016774200000327255, 0.01630139999997482];13;2;0.050011600000289036;7.tif;mask.tiff;0.14;right;['right'];0.2351074999996854;1;0.704;2.7847281999997904;39
352;S12;A;pre;4;59.90908197718123;[0.017105500000070606, 0.016238199999861536, 0.016988600000331644, 0.016731899999740563];82;2;0.04995869999993374;blank.tiff;mask.tiff;-0.14;a;['left'];0.5086661000000277;0;0.68;3.0249111000002813;32
353;S12;A;pre;4;59.90908197718123;[0.01699349999989863, 0.016608000000360335, 0.0164916999997331, 0.016512199999851873];63;3;0.04961189999994531;8.tif;mask.tiff;0.14;right;['right'];0.34302560000014637;0;0.897;3.075887800000146;57
354;S12;A;pre;4;59.90908197718123;[0.015600600000198028, 0.017229999999926804, 0.01617790000000241, 0.016596899999967718];80;1;0.05000479999989693;blank.tiff;mask.tiff;-0.14;a;['left'];0.2729380000000674;0;0.769;2.88972079999985;16
355;S12;A;pre;4;59.90908197718123;[0.01714719999972658, 0.015844600000036735, 0.017419300000256044, 0.016841899999690213];27;4;0.05010579999998299;3.tif;mask.tiff;0.14;left;['right'];0.32803729999977804;1;0.963;3.128087300000061;69
356;S12;A;pre;4;59.90908197718123;[0.01658690000022034, 0.017442700000174227, 0.0163220999997975, 0.016605299999810086];94;3;0.050370099999781814;blank.tiff;mask.tiff;-0.14;a;['left'];0.5735429999999724;0;1.142;3.5566571999997905;48
357;S12;A;pre;4;59.90908197718123;[0.015774499999679392, 0.015762200000153825, 0.017544700000144076, 0.016197099999772036];41;1;0.049504000000069937;2.tif;mask.tiff;0.14;left;['left'];0.3707601999999497;0;0.727;2.937206999999944;19
358;S12;A;pre;4;59.90908197718123;[0.01668310000013662, 0.01677109999991444, 0.01636659999985568, 0.016754300000229705];25;4;0.049891999999999825;2.tif;mask.tiff;0.14;left;['left'];0.7388184000001274;1;0.844;3.422825399999965;67
359;S12;A;pre;4;59.90908197718123;[0.01637960000016392, 0.016883899999811547, 0.0163102000001345, 0.01711879999993471];14;2;0.050312899999880756;8.tif;mask.tiff;-0.14;right;['right'];0.26492800000005445;1;0.723;2.8314025999998194;40
360;S12;A;pre;4;59.90908197718123;[0.01694309999993493, 0.016984299999876384, 0.016341100000317965, 0.01739129999987199];89;5;0.05071670000006634;blank.tiff;mask.tiff;0.14;a;['left'];0.1986376999998356;0;0.82;2.8653752000000168;81
361;S12;A;pre;4;59.90908197718123;[0.016931099999965227, 0.016321099999913713, 0.016470399999889196, 0.01758380000001125];50;2;0.05037529999981416;3.tif;mask.tiff;-0.14;left;['left'];0.6668319000000338;0;6.288;8.799693999999818;36
362;S12;A;pre;4;59.90908197718123;[0.01663250000001426, 0.016312400000060734, 0.016761700000188284, 0.016454399999929592];6;1;0.04952850000017861;8.tif;mask.tiff;-0.14;right;['right'];0.24196859999983644;1;0.754;2.8420265999998264;24
363;S12;A;pre;4;59.90908197718123;[0.016870599999947444, 0.016668299999764713, 0.016582500000367872, 0.01660539999966204];74;5;0.049856199999794626;3.tif;mask.tiff;-0.14;left;['left'];0.38276790000008987;1;1.249;3.465906299999915;84
364;S12;A;pre;4;59.90908197718123;[0.016847899999902438, 0.016898899999887362, 0.015949900000123307, 0.017468900000039866];36;5;0.050317700000050536;7.tif;mask.tiff;-0.14;right;['left'];0.5323652000001857;0;2.107;4.482464300000174;86
365;S12;A;pre;4;59.90908197718123;[0.019602200000008452, 0.017345799999930023, 0.01624309999988327, 0.01603290000002744];26;4;0.04962179999984073;3.tif;mask.tiff;-0.14;left;['right'];0.22410039999977016;0;0.752;2.8568559999998797;68
366;S12;A;pre;4;59.90908197718123;[0.005092299999887473, 0.016452400000162015, 0.01683199999979479, 0.016400700000303914];21;3;0.04968510000026072;7.tif;mask.tiff;0.14;right;['right'];0.24251790000016626;1;0.747;2.8417099000002963;55
367;S12;A;pre;4;59.90908197718123;[0.017086599999856844, 0.016172000000096887, 0.016968099999758124, 0.016448200000013458];31;4;0.04958829999986847;8.tif;mask.tiff;0.14;right;['right'];0.2475573000001532;0;1.001;3.0970957999998063;73
368;S12;A;pre;4;59.90908197718123;[0.016637099999570637, 0.01671040000019275, 0.01655010000013135, 0.01687850000007529];98;5;0.05013900000039939;blank.tiff;mask.tiff;-0.14;a;['left'];0.29151580000007016;0;0.686;2.8247159000002284;80
369;S12;A;pre;4;59.90908197718123;[0.016207300000132818, 0.01620890000003783, 0.016954100000020844, 0.016333900000063295];95;3;0.04949690000012197;blank.tiff;mask.tiff;0.14;a;['left'];0.277662799999689;0;1.268;3.3777545000002647;49
370;S12;A;pre;4;59.90908197718123;[0.015410700000302313, 0.017232299999704992, 0.01714380000021265, 0.01566980000006879];93;2;0.05004589999998643;blank.tiff;mask.tiff;0.14;a;['left'];0.38099049999982526;0;0.938;3.164656599999944;33
371;S12;A;pre;4;59.90908197718123;[0.01607270000022254, 0.01708250000001499, 0.017294999999649008, 0.016495800000029703];39;5;0.0508732999996937;8.tif;mask.tiff;0.14;right;['right'];2.899488200000178;0;1.682;6.416808900000433;89
372;S12;A;pre;4;59.90908197718123;[0.01695640000025378, 0.016829199999847333, 0.01709949999985838, 0.01607640000020183];48;2;0.05000509999990754;2.tif;mask.tiff;-0.14;left;['left'];0.24361700000008568;1;0.717;2.7932840000003125;34
373;S12;A;pre;4;59.90908197718123;[0.01613679999991291, 0.016779200000200944, 0.01691479999999501, 0.01598680000006425];1;1;0.049680800000260206;2.tif;mask.tiff;0.14;left;['left'];0.18650609999986045;1;0.78;2.8033644999995886;19
374;S12;A;pre;4;59.90908197718123;[0.01531089999980395, 0.01641090000020995, 0.01736059999984718, 0.015785500000220054];52;2;0.049557000000277185;7.tif;mask.tiff;-0.14;right;['left'];0.24079859999983455;0;0.877;2.957598599999983;38
375;S12;A;pre;4;59.90908197718123;[0.016922400000112248, 0.016173500000149943, 0.01708409999992, 0.016442000000097323];34;5;0.049699600000167266;3.tif;mask.tiff;-0.14;left;['left'];0.2556312000001526;1;0.656;2.7551104999997733;84
376;S12;A;pre;4;59.90908197718123;[0.01780170000029102, 0.01601699999991979, 0.01693840000007185, 0.016620399999737856];87;4;0.0495757999997295;blank.tiff;mask.tiff;0.14;a;['left'];0.4105030999999144;0;0.838;3.0936605999995663;65
377;S12;A;pre;4;59.90908197718123;[0.015766999999868858, 0.017012100000101782, 0.016686200000094686, 0.017171699999835255];58;3;0.05087000000003172;3.tif;mask.tiff;-0.14;left;['left'];0.24851110000008703;1;0.695;2.781916099999762;52
378;S12;A;pre;4;59.90908197718123;[0.016243499999745836, 0.016526400000202557, 0.01682940000000599, 0.01681929999995191];61;3;0.050175100000160455;7.tif;mask.tiff;0.14;right;['left'];0.5460646999999881;0;0.712;3.0956655999998475;55
379;S12;A;pre;4;59.90908197718123;[0.0164810999999645, 0.01740590000008524, 0.016215399999964575, 0.016462000000046828];12;2;0.05008330000009664;7.tif;mask.tiff;-0.14;right;['left'];0.32749429999967106;1;1.332;3.493804000000182;38
380;S12;A;pre;4;59.90908197718123;[0.01723489999994854, 0.016497099999924103, 0.01735129999997298, 0.015818400000171096];38;5;0.04966680000006818;8.tif;mask.tiff;-0.14;right;['left'];0.3722373000000516;0;1.554;3.771361899999647;88
381;S12;A;pre;4;59.90908197718123;[0.016579099999944447, 0.016759300000103394, 0.0168282999998155, 0.016017100000226492];83;2;0.049604700000145385;blank.tiff;mask.tiff;0.14;a;['left'];0.4067064000000755;0;0.988;3.2399640999997246;33
382;S12;A;pre;4;59.90908197718123;[0.016923500000302738, 0.016568699999879755, 0.016373899999962305, 0.017249099999844475];40;1;0.050191699999686534;2.tif;mask.tiff;-0.14;left;['left'];0.2893813999999111;1;1.363;3.4886208000002625;18
383;S12;A;pre;4;59.90908197718123;[0.016864000000168744, 0.016372900000078516, 0.017811599999731698, 0.01568760000009206];75;5;0.049872099999902275;3.tif;mask.tiff;0.14;left;['left'];0.3057893000000149;0;0.89;3.039361000000099;85
384;S12;A;pre;4;59.90908197718123;[0.016513599999598227, 0.016817400000036287, 0.016736900000069, 0.017394700000295416];11;2;0.0509490000004007;3.tif;mask.tiff;0.14;left;['left'];0.3390922999997201;1;1.091;3.271689900000183;37
385;S12;A;pre;4;59.90908197718123;[0.016408899999987625, 0.016909599999962666, 0.01698530000021492, 0.0160516999999345];2;1;0.049946600000112085;3.tif;mask.tiff;-0.14;left;['left'];0.23834380000016608;1;0.776;2.8549732000001313;20
386;S12;A;pre;4;59.90908197718123;[0.01654290000033143, 0.016877300000032847, 0.016701499999726366, 0.01637879999998404];86;4;0.04995759999974325;blank.tiff;mask.tiff;-0.14;a;['right'];0.41682710000031875;0;0.719;2.9668501000001015;64
387;S12;A;pre;4;59.90908197718123;[0.016199499999856926, 0.01674319999983709, 0.01698820000001433, 0.016736000000037166];51;2;0.050467399999888585;3.tif;mask.tiff;0.14;left;['left'];0.23135480000019015;1;0.848;2.915236199999981;37
388;S12;A;pre;4;59.90908197718123;[0.016991200000120443, 0.01663779999989856, 0.01652379999995901, 0.016997400000036578];72;5;0.05015899999989415;2.tif;mask.tiff;-0.14;left;['left'];0.28758099999959086;1;0.818;2.9379832999998143;82
389;S12;A;pre;4;59.90908197718123;[0.006088999999974476, 0.016122600000016973, 0.016773100000136765, 0.016889199999695848];0;1;0.049784899999849586;2.tif;mask.tiff;-0.14;left;['left'];0.29817159999993237;1;0.615;2.7972122999999556;18
390;S12;A;pre;4;59.90908197718123;[0.01687709999987419, 0.016610599999694386, 0.016500900000210095, 0.01611300000013216];17;3;0.04922450000003664;2.tif;mask.tiff;0.14;left;['left'];0.6560410000001866;1;1.293;3.789389499999743;51
391;S12;A;pre;4;59.90908197718123;[0.014884900000197376, 0.0159707999996499, 0.016915800000333547, 0.01656039999988934];73;5;0.04944699999987279;2.tif;mask.tiff;0.14;left;['left'];0.8636646999998447;0;2.201;4.896713000000091;83
392;S12;A;pre;4;59.90908197718123;[0.01733749999993961, 0.015888400000221736, 0.01746759999969072, 0.016582600000219827];47;1;0.04993860000013228;8.tif;mask.tiff;0.14;right;['right'];0.21225529999992432;1;0.589;2.6459270999998807;25
393;S12;A;pre;4;59.90908197718123;[0.016505200000210607, 0.01672000000007756, 0.01688849999982267, 0.016809400000056485];55;2;0.05041789999995672;8.tif;mask.tiff;0.14;right;['right'];0.22842129999980898;0;1.614;3.6786087000000407;41
394;S12;A;pre;4;59.90908197718123;[0.015977099999872735, 0.01691789999995308, 0.016927300000133982, 0.017065900000034162];4;1;0.05091110000012122;7.tif;mask.tiff;-0.14;right;['right'];0.21475079999981972;1;0.719;2.7814205999998194;22
395;S12;A;pre;4;59.90908197718123;[0.016806699999960983, 0.017151199999716482, 0.015728500000022905, 0.017877600000247185];16;3;0.05075729999998657;2.tif;mask.tiff;-0.14;left;['left'];0.2769729000001462;1;0.842;2.9600906000000577;50
396;S12;A;pre;4;59.90908197718123;[0.014817300000231626, 0.016467500000089785, 0.016873999999916123, 0.01624579999997877];69;4;0.04958729999998468;7.tif;mask.tiff;0.14;right;['right'];0.3573397999998633;1;0.753;2.956981799999994;71
397;S12;A;pre;4;59.90908197718123;[0.016698700000233657, 0.016310800000155723, 0.016462399999909394, 0.016779999999926076];56;3;0.04955319999999119;2.tif;mask.tiff;-0.14;left;['left'];0.3684417999998004;1;3.21;5.41841710000017;50
398;S12;A;pre;4;59.90908197718123;[0.017269699999815202, 0.016351300000224, 0.01648799999975381, 0.01637620000019524];70;4;0.04921550000017305;8.tif;mask.tiff;-0.14;right;['right'];0.3495702000000165;0;1.293;3.4823569999998654;72
399;S12;A;pre;4;59.90908197718123;[0.016692199999852164, 0.01642279999987295, 0.017016900000271562, 0.01638520000005883];28;4;0.04982490000020334;7.tif;mask.tiff;-0.14;right;['right'];0.1798105999996551;1;0.687;2.7133749000004173;70
